bibkey,paper,task,subject,gender,choice,r,Period
ErtHaruvy2017,Ert and Haruvy 2017,HL,1,0,4,0.5783619239181279,1
ErtHaruvy2017,Ert and Haruvy 2017,HL,2,0,4,0.4923611220344901,1
ErtHaruvy2017,Ert and Haruvy 2017,HL,3,0,1,-0.37,1
ErtHaruvy2017,Ert and Haruvy 2017,HL,4,0,10,2.71,1
ErtHaruvy2017,Ert and Haruvy 2017,HL,5,1,7,1.4688103033974766,1
ErtHaruvy2017,Ert and Haruvy 2017,HL,6,1,6,1.0070758138550444,1
ErtHaruvy2017,Ert and Haruvy 2017,HL,7,1,2,-0.34832949440926314,1
ErtHaruvy2017,Ert and Haruvy 2017,HL,8,1,8,1.8367350326431915,1
ErtHaruvy2017,Ert and Haruvy 2017,HL,9,1,8,1.6963571585249155,1
ErtHaruvy2017,Ert and Haruvy 2017,HL,10,1,3,0.08333711200859398,1
ErtHaruvy2017,Ert and Haruvy 2017,HL,11,1,9,2.2758427539933472,1
ErtHaruvy2017,Ert and Haruvy 2017,HL,12,1,1,-0.37,1
ErtHaruvy2017,Ert and Haruvy 2017,HL,13,1,6,1.0392262617591768,1
ErtHaruvy2017,Ert and Haruvy 2017,HL,14,1,10,2.71,1
ErtHaruvy2017,Ert and Haruvy 2017,HL,15,0,9,2.21862286798656,1
ErtHaruvy2017,Ert and Haruvy 2017,HL,16,0,3,0.1957820022571832,1
ErtHaruvy2017,Ert and Haruvy 2017,HL,17,1,8,1.8122102717030792,1
ErtHaruvy2017,Ert and Haruvy 2017,HL,18,1,6,0.9613913793116807,1
ErtHaruvy2017,Ert and Haruvy 2017,HL,19,1,5,0.7109819033090025,1
ErtHaruvy2017,Ert and Haruvy 2017,HL,20,1,7,1.1505667903320862,1
ErtHaruvy2017,Ert and Haruvy 2017,HL,21,1,4,0.38418047899147495,1
ErtHaruvy2017,Ert and Haruvy 2017,HL,22,1,3,0.09105363343609497,1
ErtHaruvy2017,Ert and Haruvy 2017,HL,23,1,9,2.264913080688566,1
ErtHaruvy2017,Ert and Haruvy 2017,HL,24,1,7,1.1565080117993056,1
ErtHaruvy2017,Ert and Haruvy 2017,HL,25,1,10,2.71,1
ErtHaruvy2017,Ert and Haruvy 2017,HL,26,1,6,1.0701733466470613,1
ErtHaruvy2017,Ert and Haruvy 2017,HL,27,1,6,1.1271546218078583,1
ErtHaruvy2017,Ert and Haruvy 2017,HL,28,1,4,0.4058422002242878,1
ErtHaruvy2017,Ert and Haruvy 2017,HL,29,0,5,0.7893535191565751,1
ErtHaruvy2017,Ert and Haruvy 2017,HL,30,1,9,1.992022879300639,1
ErtHaruvy2017,Ert and Haruvy 2017,HL,31,1,2,-0.24279396336525677,1
ErtHaruvy2017,Ert and Haruvy 2017,HL,32,1,5,0.7452424207841977,1
ErtHaruvy2017,Ert and Haruvy 2017,HL,33,1,10,2.71,1
ErtHaruvy2017,Ert and Haruvy 2017,HL,34,1,4,0.45001092803664505,1
ErtHaruvy2017,Ert and Haruvy 2017,HL,35,1,8,1.8250325679546222,1
ErtHaruvy2017,Ert and Haruvy 2017,HL,36,1,6,1.100411028182134,1
ErtHaruvy2017,Ert and Haruvy 2017,HL,37,1,4,0.3418114392901771,1
ErtHaruvy2017,Ert and Haruvy 2017,HL,38,1,7,1.4215492029720918,1
ErtHaruvy2017,Ert and Haruvy 2017,HL,39,1,4,0.44797316430835055,1
ErtHaruvy2017,Ert and Haruvy 2017,HL,40,1,7,1.272118406961672,1
ErtHaruvy2017,Ert and Haruvy 2017,HL,41,1,7,1.3559008473204448,1
ErtHaruvy2017,Ert and Haruvy 2017,HL,42,0,5,0.6679769908962772,1
ErtHaruvy2017,Ert and Haruvy 2017,HL,43,0,3,0.09670139646157623,1
ErtHaruvy2017,Ert and Haruvy 2017,HL,44,1,7,1.3981926123192534,1
ErtHaruvy2017,Ert and Haruvy 2017,HL,45,0,6,0.950578316161409,1
ErtHaruvy2017,Ert and Haruvy 2017,HL,46,1,6,0.9581450429977849,1
ErtHaruvy2017,Ert and Haruvy 2017,HL,47,1,3,0.07969101235270501,1
ErtHaruvy2017,Ert and Haruvy 2017,HL,48,0,3,0.14255825876258316,1
ErtHaruvy2017,Ert and Haruvy 2017,HL,49,1,7,1.1597031953511758,1
ErtHaruvy2017,Ert and Haruvy 2017,HL,50,1,3,0.1364610722591169,1
ErtHaruvy2017,Ert and Haruvy 2017,HL,51,1,3,0.07400971096009017,1
ErtHaruvy2017,Ert and Haruvy 2017,HL,52,1,9,2.3946966332476585,1
ErtHaruvy2017,Ert and Haruvy 2017,HL,53,0,6,0.9591987529303878,1
ErtHaruvy2017,Ert and Haruvy 2017,HL,54,1,9,2.6534171800408513,1
ErtHaruvy2017,Ert and Haruvy 2017,HL,55,1,3,0.3071524641010911,1
ErtHaruvy2017,Ert and Haruvy 2017,HL,56,1,3,0.11031256003072486,1
ErtHaruvy2017,Ert and Haruvy 2017,HL,57,1,3,0.09517053199466319,1
ErtHaruvy2017,Ert and Haruvy 2017,HL,58,1,7,1.1576007957942782,1
ErtHaruvy2017,Ert and Haruvy 2017,HL,59,1,2,-0.23498283557593821,1
ErtHaruvy2017,Ert and Haruvy 2017,HL,60,1,7,1.3106738784443586,1
ErtHaruvy2017,Ert and Haruvy 2017,HL,1,0,2,-0.14403818080201744,2
ErtHaruvy2017,Ert and Haruvy 2017,HL,2,0,6,1.0142260168213397,2
ErtHaruvy2017,Ert and Haruvy 2017,HL,3,0,2,-0.026175871193408917,2
ErtHaruvy2017,Ert and Haruvy 2017,HL,4,0,5,0.7021490343892947,2
ErtHaruvy2017,Ert and Haruvy 2017,HL,5,1,6,1.0496092211687937,2
ErtHaruvy2017,Ert and Haruvy 2017,HL,6,1,6,1.098765946831554,2
ErtHaruvy2017,Ert and Haruvy 2017,HL,7,1,7,1.4487766756815836,2
ErtHaruvy2017,Ert and Haruvy 2017,HL,8,1,3,0.27385146198561416,2
ErtHaruvy2017,Ert and Haruvy 2017,HL,9,1,1,-0.37,2
ErtHaruvy2017,Ert and Haruvy 2017,HL,10,1,7,1.4486795505974441,2
ErtHaruvy2017,Ert and Haruvy 2017,HL,11,1,3,0.3099560059257783,2
ErtHaruvy2017,Ert and Haruvy 2017,HL,12,1,8,1.896959409546107,2
ErtHaruvy2017,Ert and Haruvy 2017,HL,13,1,2,-0.2789289172552526,2
ErtHaruvy2017,Ert and Haruvy 2017,HL,14,1,9,2.30984758480452,2
ErtHaruvy2017,Ert and Haruvy 2017,HL,15,0,5,0.8187792917061597,2
ErtHaruvy2017,Ert and Haruvy 2017,HL,16,0,10,2.71,2
ErtHaruvy2017,Ert and Haruvy 2017,HL,17,1,8,1.8784738060366362,2
ErtHaruvy2017,Ert and Haruvy 2017,HL,18,1,2,0.022450538277626053,2
ErtHaruvy2017,Ert and Haruvy 2017,HL,19,1,6,1.0854762466391548,2
ErtHaruvy2017,Ert and Haruvy 2017,HL,20,1,2,-0.2650980187393725,2
ErtHaruvy2017,Ert and Haruvy 2017,HL,21,1,5,0.6224691202398389,2
ErtHaruvy2017,Ert and Haruvy 2017,HL,22,1,2,0.02676380632445219,2
ErtHaruvy2017,Ert and Haruvy 2017,HL,23,1,10,2.71,2
ErtHaruvy2017,Ert and Haruvy 2017,HL,24,1,5,0.7040836240677163,2
ErtHaruvy2017,Ert and Haruvy 2017,HL,25,1,8,1.7890371478907765,2
ErtHaruvy2017,Ert and Haruvy 2017,HL,26,1,5,0.6273237750213593,2
ErtHaruvy2017,Ert and Haruvy 2017,HL,27,1,6,1.0581036750692874,2
ErtHaruvy2017,Ert and Haruvy 2017,HL,28,1,8,1.5055813830159603,2
ErtHaruvy2017,Ert and Haruvy 2017,HL,29,0,6,0.8631770197534934,2
ErtHaruvy2017,Ert and Haruvy 2017,HL,30,1,6,1.1069169297581538,2
ErtHaruvy2017,Ert and Haruvy 2017,HL,31,1,7,1.3909214246133341,2
ErtHaruvy2017,Ert and Haruvy 2017,HL,32,1,8,1.889237096728757,2
ErtHaruvy2017,Ert and Haruvy 2017,HL,33,1,9,2.3009358367510138,2
ErtHaruvy2017,Ert and Haruvy 2017,HL,34,1,1,-0.37,2
ErtHaruvy2017,Ert and Haruvy 2017,HL,35,1,8,1.5956414176663383,2
ErtHaruvy2017,Ert and Haruvy 2017,HL,36,1,2,-0.30149122735485434,2
ErtHaruvy2017,Ert and Haruvy 2017,HL,37,1,10,2.71,2
ErtHaruvy2017,Ert and Haruvy 2017,HL,38,1,10,2.71,2
ErtHaruvy2017,Ert and Haruvy 2017,HL,39,1,6,1.0706849892623722,2
ErtHaruvy2017,Ert and Haruvy 2017,HL,40,1,7,1.273599958862178,2
ErtHaruvy2017,Ert and Haruvy 2017,HL,41,1,3,0.11393108658725397,2
ErtHaruvy2017,Ert and Haruvy 2017,HL,42,0,7,1.3813455768954008,2
ErtHaruvy2017,Ert and Haruvy 2017,HL,43,0,4,0.5348846032260917,2
ErtHaruvy2017,Ert and Haruvy 2017,HL,44,1,6,0.9811081272084266,2
ErtHaruvy2017,Ert and Haruvy 2017,HL,45,0,6,0.9182252740953117,2
ErtHaruvy2017,Ert and Haruvy 2017,HL,46,1,4,0.5343606357905082,2
ErtHaruvy2017,Ert and Haruvy 2017,HL,47,1,1,-0.37,2
ErtHaruvy2017,Ert and Haruvy 2017,HL,48,0,3,0.2221355934464373,2
ErtHaruvy2017,Ert and Haruvy 2017,HL,49,1,7,1.1655614145472646,2
ErtHaruvy2017,Ert and Haruvy 2017,HL,50,1,7,1.4853060815529897,2
ErtHaruvy2017,Ert and Haruvy 2017,HL,51,1,5,0.6617757215723395,2
ErtHaruvy2017,Ert and Haruvy 2017,HL,52,1,4,0.503281412392389,2
ErtHaruvy2017,Ert and Haruvy 2017,HL,53,0,9,2.1448669018782676,2
ErtHaruvy2017,Ert and Haruvy 2017,HL,54,1,7,1.3883737684320658,2
ErtHaruvy2017,Ert and Haruvy 2017,HL,55,1,8,1.82460009183269,2
ErtHaruvy2017,Ert and Haruvy 2017,HL,56,1,10,2.71,2
ErtHaruvy2017,Ert and Haruvy 2017,HL,57,1,10,2.71,2
ErtHaruvy2017,Ert and Haruvy 2017,HL,58,1,1,-0.37,2
ErtHaruvy2017,Ert and Haruvy 2017,HL,59,1,7,1.3282636944483965,2
ErtHaruvy2017,Ert and Haruvy 2017,HL,60,1,8,1.9036332008754835,2
ErtHaruvy2017,Ert and Haruvy 2017,HL,1,0,5,0.6799146757880226,3
ErtHaruvy2017,Ert and Haruvy 2017,HL,2,0,6,1.0209269386017694,3
ErtHaruvy2017,Ert and Haruvy 2017,HL,3,0,8,1.616297015780583,3
ErtHaruvy2017,Ert and Haruvy 2017,HL,4,0,8,1.8026661473046988,3
ErtHaruvy2017,Ert and Haruvy 2017,HL,5,1,8,1.5940645103435964,3
ErtHaruvy2017,Ert and Haruvy 2017,HL,6,1,4,0.5481485644239,3
ErtHaruvy2017,Ert and Haruvy 2017,HL,7,1,2,-0.27527351973578335,3
ErtHaruvy2017,Ert and Haruvy 2017,HL,8,1,10,2.71,3
ErtHaruvy2017,Ert and Haruvy 2017,HL,9,1,9,2.412929082363844,3
ErtHaruvy2017,Ert and Haruvy 2017,HL,10,1,4,0.4086775153246708,3
ErtHaruvy2017,Ert and Haruvy 2017,HL,11,1,7,1.3149511241540313,3
ErtHaruvy2017,Ert and Haruvy 2017,HL,12,1,9,2.2828912136424333,3
ErtHaruvy2017,Ert and Haruvy 2017,HL,13,1,7,1.2081697507714853,3
ErtHaruvy2017,Ert and Haruvy 2017,HL,14,1,6,0.8930906822672113,3
ErtHaruvy2017,Ert and Haruvy 2017,HL,15,0,6,0.8658945949515328,3
ErtHaruvy2017,Ert and Haruvy 2017,HL,16,0,7,1.1771910893451423,3
ErtHaruvy2017,Ert and Haruvy 2017,HL,17,1,6,1.1435296052135526,3
ErtHaruvy2017,Ert and Haruvy 2017,HL,18,1,1,-0.37,3
ErtHaruvy2017,Ert and Haruvy 2017,HL,19,1,10,2.71,3
ErtHaruvy2017,Ert and Haruvy 2017,HL,20,1,3,0.07337326563196257,3
ErtHaruvy2017,Ert and Haruvy 2017,HL,21,1,6,1.095078283199109,3
ErtHaruvy2017,Ert and Haruvy 2017,HL,22,1,6,1.0588020164053886,3
ErtHaruvy2017,Ert and Haruvy 2017,HL,23,1,5,0.5938725601695478,3
ErtHaruvy2017,Ert and Haruvy 2017,HL,24,1,8,1.6548739755013957,3
ErtHaruvy2017,Ert and Haruvy 2017,HL,25,1,8,1.638073336975649,3
ErtHaruvy2017,Ert and Haruvy 2017,HL,26,1,3,0.15274272761074828,3
ErtHaruvy2017,Ert and Haruvy 2017,HL,27,1,9,2.0017730942275374,3
ErtHaruvy2017,Ert and Haruvy 2017,HL,28,1,8,1.5674954174738378,3
ErtHaruvy2017,Ert and Haruvy 2017,HL,29,0,10,2.71,3
ErtHaruvy2017,Ert and Haruvy 2017,HL,30,1,4,0.4761251533450559,3
ErtHaruvy2017,Ert and Haruvy 2017,HL,31,1,9,2.081492172088474,3
ErtHaruvy2017,Ert and Haruvy 2017,HL,32,1,8,1.5298966515064238,3
ErtHaruvy2017,Ert and Haruvy 2017,HL,33,1,10,2.71,3
ErtHaruvy2017,Ert and Haruvy 2017,HL,34,1,6,1.0188921142602338,3
ErtHaruvy2017,Ert and Haruvy 2017,HL,35,1,7,1.4535622767964378,3
ErtHaruvy2017,Ert and Haruvy 2017,HL,36,1,1,-0.37,3
ErtHaruvy2017,Ert and Haruvy 2017,HL,37,1,9,1.9591678772587329,3
ErtHaruvy2017,Ert and Haruvy 2017,HL,38,1,5,0.8049118557758629,3
ErtHaruvy2017,Ert and Haruvy 2017,HL,39,1,1,-0.37,3
ErtHaruvy2017,Ert and Haruvy 2017,HL,40,1,10,2.71,3
ErtHaruvy2017,Ert and Haruvy 2017,HL,41,1,9,2.191272710310295,3
ErtHaruvy2017,Ert and Haruvy 2017,HL,42,0,9,2.2323699273355304,3
ErtHaruvy2017,Ert and Haruvy 2017,HL,43,0,8,1.9030147942295297,3
ErtHaruvy2017,Ert and Haruvy 2017,HL,44,1,6,0.8971447563963011,3
ErtHaruvy2017,Ert and Haruvy 2017,HL,45,0,4,0.549928371834103,3
ErtHaruvy2017,Ert and Haruvy 2017,HL,46,1,8,1.9315465731732546,3
ErtHaruvy2017,Ert and Haruvy 2017,HL,47,1,9,2.515874316105619,3
ErtHaruvy2017,Ert and Haruvy 2017,HL,48,0,10,2.71,3
ErtHaruvy2017,Ert and Haruvy 2017,HL,49,1,1,-0.37,3
ErtHaruvy2017,Ert and Haruvy 2017,HL,50,1,3,0.15651319128694013,3
ErtHaruvy2017,Ert and Haruvy 2017,HL,51,1,6,1.1067396118538453,3
ErtHaruvy2017,Ert and Haruvy 2017,HL,52,1,6,1.0221376558998598,3
ErtHaruvy2017,Ert and Haruvy 2017,HL,53,0,1,-0.37,3
ErtHaruvy2017,Ert and Haruvy 2017,HL,54,1,4,0.38705437678843735,3
ErtHaruvy2017,Ert and Haruvy 2017,HL,55,1,8,1.619444322474301,3
ErtHaruvy2017,Ert and Haruvy 2017,HL,56,1,10,2.71,3
ErtHaruvy2017,Ert and Haruvy 2017,HL,57,1,7,1.2124877068633213,3
ErtHaruvy2017,Ert and Haruvy 2017,HL,58,1,10,2.71,3
ErtHaruvy2017,Ert and Haruvy 2017,HL,59,1,7,1.3106725430535153,3
ErtHaruvy2017,Ert and Haruvy 2017,HL,60,1,7,1.3771752080507575,3
ErtHaruvy2017,Ert and Haruvy 2017,HL,1,0,2,-0.09107332609593866,4
ErtHaruvy2017,Ert and Haruvy 2017,HL,2,0,1,-0.37,4
ErtHaruvy2017,Ert and Haruvy 2017,HL,3,0,9,2.214178588958457,4
ErtHaruvy2017,Ert and Haruvy 2017,HL,4,0,4,0.4955009301775135,4
ErtHaruvy2017,Ert and Haruvy 2017,HL,5,1,5,0.7058376871980726,4
ErtHaruvy2017,Ert and Haruvy 2017,HL,6,1,1,-0.37,4
ErtHaruvy2017,Ert and Haruvy 2017,HL,7,1,3,0.2822339944494888,4
ErtHaruvy2017,Ert and Haruvy 2017,HL,8,1,2,-0.30579196128994224,4
ErtHaruvy2017,Ert and Haruvy 2017,HL,9,1,1,-0.37,4
ErtHaruvy2017,Ert and Haruvy 2017,HL,10,1,9,2.5082472207862883,4
ErtHaruvy2017,Ert and Haruvy 2017,HL,11,1,8,1.5175108089344576,4
ErtHaruvy2017,Ert and Haruvy 2017,HL,12,1,8,1.8336140618193895,4
ErtHaruvy2017,Ert and Haruvy 2017,HL,13,1,8,1.5827156477235258,4
ErtHaruvy2017,Ert and Haruvy 2017,HL,14,1,3,0.1690006041317247,4
ErtHaruvy2017,Ert and Haruvy 2017,HL,15,0,5,0.692144650244154,4
ErtHaruvy2017,Ert and Haruvy 2017,HL,16,0,9,2.1654478515125812,4
ErtHaruvy2017,Ert and Haruvy 2017,HL,17,1,3,0.0895868382556364,4
ErtHaruvy2017,Ert and Haruvy 2017,HL,18,1,3,0.16625532337930055,4
ErtHaruvy2017,Ert and Haruvy 2017,HL,19,1,10,2.71,4
ErtHaruvy2017,Ert and Haruvy 2017,HL,20,1,6,1.0205268602352588,4
ErtHaruvy2017,Ert and Haruvy 2017,HL,21,1,4,0.46897594737820325,4
ErtHaruvy2017,Ert and Haruvy 2017,HL,22,1,2,-0.17014190450310707,4
ErtHaruvy2017,Ert and Haruvy 2017,HL,23,1,8,1.7800334042264148,4
ErtHaruvy2017,Ert and Haruvy 2017,HL,24,1,2,-0.3316795898415148,4
ErtHaruvy2017,Ert and Haruvy 2017,HL,25,1,7,1.3022792339976876,4
ErtHaruvy2017,Ert and Haruvy 2017,HL,26,1,10,2.71,4
ErtHaruvy2017,Ert and Haruvy 2017,HL,27,1,5,0.7681265048403293,4
ErtHaruvy2017,Ert and Haruvy 2017,HL,28,1,1,-0.37,4
ErtHaruvy2017,Ert and Haruvy 2017,HL,29,0,4,0.3280636176862754,4
ErtHaruvy2017,Ert and Haruvy 2017,HL,30,1,5,0.7729470517812297,4
ErtHaruvy2017,Ert and Haruvy 2017,HL,31,1,6,0.8512871901504695,4
ErtHaruvy2017,Ert and Haruvy 2017,HL,32,1,8,1.7612014589924365,4
ErtHaruvy2017,Ert and Haruvy 2017,HL,33,1,1,-0.37,4
ErtHaruvy2017,Ert and Haruvy 2017,HL,34,1,7,1.485016467347741,4
ErtHaruvy2017,Ert and Haruvy 2017,HL,35,1,8,1.7946347800362854,4
ErtHaruvy2017,Ert and Haruvy 2017,HL,36,1,7,1.2625484755262733,4
ErtHaruvy2017,Ert and Haruvy 2017,HL,37,1,9,2.4463331895601,4
ErtHaruvy2017,Ert and Haruvy 2017,HL,38,1,9,2.4042635984811933,4
ErtHaruvy2017,Ert and Haruvy 2017,HL,39,1,8,1.9253177692042662,4
ErtHaruvy2017,Ert and Haruvy 2017,HL,40,1,10,2.71,4
ErtHaruvy2017,Ert and Haruvy 2017,HL,41,1,3,0.11279359522741289,4
ErtHaruvy2017,Ert and Haruvy 2017,HL,42,0,10,2.71,4
ErtHaruvy2017,Ert and Haruvy 2017,HL,43,0,3,0.11995627104537562,4
ErtHaruvy2017,Ert and Haruvy 2017,HL,44,1,4,0.32537932991748675,4
ErtHaruvy2017,Ert and Haruvy 2017,HL,45,0,1,-0.37,4
ErtHaruvy2017,Ert and Haruvy 2017,HL,46,1,6,1.039408305240795,4
ErtHaruvy2017,Ert and Haruvy 2017,HL,47,1,4,0.4282096598716453,4
ErtHaruvy2017,Ert and Haruvy 2017,HL,48,0,10,2.71,4
ErtHaruvy2017,Ert and Haruvy 2017,HL,49,1,8,1.5408034917805344,4
ErtHaruvy2017,Ert and Haruvy 2017,HL,50,1,9,2.2851624239608643,4
ErtHaruvy2017,Ert and Haruvy 2017,HL,51,1,5,0.7150184200610965,4
ErtHaruvy2017,Ert and Haruvy 2017,HL,52,1,3,0.2213598650880158,4
ErtHaruvy2017,Ert and Haruvy 2017,HL,53,0,6,1.0420301401754841,4
ErtHaruvy2017,Ert and Haruvy 2017,HL,54,1,8,1.9218681910494342,4
ErtHaruvy2017,Ert and Haruvy 2017,HL,55,1,3,0.07332279748283327,4
ErtHaruvy2017,Ert and Haruvy 2017,HL,56,1,4,0.5343620325718075,4
ErtHaruvy2017,Ert and Haruvy 2017,HL,57,1,5,0.6712555582309141,4
ErtHaruvy2017,Ert and Haruvy 2017,HL,58,1,3,0.11523304100148381,4
ErtHaruvy2017,Ert and Haruvy 2017,HL,59,1,8,1.7138435862306505,4
ErtHaruvy2017,Ert and Haruvy 2017,HL,60,1,7,1.46291241211351,4
ErtHaruvy2017,Ert and Haruvy 2017,HL,1,0,4,0.5838214149000123,5
ErtHaruvy2017,Ert and Haruvy 2017,HL,2,0,4,0.42237359353341164,5
ErtHaruvy2017,Ert and Haruvy 2017,HL,3,0,7,1.384732364770025,5
ErtHaruvy2017,Ert and Haruvy 2017,HL,4,0,4,0.5389422489400022,5
ErtHaruvy2017,Ert and Haruvy 2017,HL,5,1,3,0.049219872311223295,5
ErtHaruvy2017,Ert and Haruvy 2017,HL,6,1,2,-0.35679082421585917,5
ErtHaruvy2017,Ert and Haruvy 2017,HL,7,1,1,-0.37,5
ErtHaruvy2017,Ert and Haruvy 2017,HL,8,1,10,2.71,5
ErtHaruvy2017,Ert and Haruvy 2017,HL,9,1,7,1.373999721771106,5
ErtHaruvy2017,Ert and Haruvy 2017,HL,10,1,8,1.6904510734137148,5
ErtHaruvy2017,Ert and Haruvy 2017,HL,11,1,10,2.71,5
ErtHaruvy2017,Ert and Haruvy 2017,HL,12,1,10,2.71,5
ErtHaruvy2017,Ert and Haruvy 2017,HL,13,1,1,-0.37,5
ErtHaruvy2017,Ert and Haruvy 2017,HL,14,1,7,1.330241488716565,5
ErtHaruvy2017,Ert and Haruvy 2017,HL,15,0,1,-0.37,5
ErtHaruvy2017,Ert and Haruvy 2017,HL,16,0,8,1.698071760693565,5
ErtHaruvy2017,Ert and Haruvy 2017,HL,17,1,4,0.4177466043224558,5
ErtHaruvy2017,Ert and Haruvy 2017,HL,18,1,10,2.71,5
ErtHaruvy2017,Ert and Haruvy 2017,HL,19,1,8,1.8487226515216753,5
ErtHaruvy2017,Ert and Haruvy 2017,HL,20,1,8,1.7855247014481574,5
ErtHaruvy2017,Ert and Haruvy 2017,HL,21,1,10,2.71,5
ErtHaruvy2017,Ert and Haruvy 2017,HL,22,1,4,0.33894833057420326,5
ErtHaruvy2017,Ert and Haruvy 2017,HL,23,1,9,2.039762667585164,5
ErtHaruvy2017,Ert and Haruvy 2017,HL,24,1,3,0.3126372913946398,5
ErtHaruvy2017,Ert and Haruvy 2017,HL,25,1,10,2.71,5
ErtHaruvy2017,Ert and Haruvy 2017,HL,26,1,3,0.17952401959337297,5
ErtHaruvy2017,Ert and Haruvy 2017,HL,27,1,10,2.71,5
ErtHaruvy2017,Ert and Haruvy 2017,HL,28,1,8,1.62956478563603,5
ErtHaruvy2017,Ert and Haruvy 2017,HL,29,0,6,1.0866540607763453,5
ErtHaruvy2017,Ert and Haruvy 2017,HL,30,1,3,0.2777241790224798,5
ErtHaruvy2017,Ert and Haruvy 2017,HL,31,1,6,0.8675165196182206,5
ErtHaruvy2017,Ert and Haruvy 2017,HL,32,1,2,-0.05948225099593396,5
ErtHaruvy2017,Ert and Haruvy 2017,HL,33,1,5,0.6392974587762728,5
ErtHaruvy2017,Ert and Haruvy 2017,HL,34,1,10,2.71,5
ErtHaruvy2017,Ert and Haruvy 2017,HL,35,1,9,2.0008137384802103,5
ErtHaruvy2017,Ert and Haruvy 2017,HL,36,1,6,0.9849097587401047,5
ErtHaruvy2017,Ert and Haruvy 2017,HL,37,1,8,1.826170187140815,5
ErtHaruvy2017,Ert and Haruvy 2017,HL,38,1,4,0.5066988761909306,5
ErtHaruvy2017,Ert and Haruvy 2017,HL,39,1,4,0.5477145077358,5
ErtHaruvy2017,Ert and Haruvy 2017,HL,40,1,3,0.21913726412691178,5
ErtHaruvy2017,Ert and Haruvy 2017,HL,41,1,9,2.2257782941590993,5
ErtHaruvy2017,Ert and Haruvy 2017,HL,42,0,7,1.3068281395593657,5
ErtHaruvy2017,Ert and Haruvy 2017,HL,43,0,2,-0.01921056637540458,5
ErtHaruvy2017,Ert and Haruvy 2017,HL,44,1,2,-0.0544033977948129,5
ErtHaruvy2017,Ert and Haruvy 2017,HL,45,0,6,0.8730658357962966,5
ErtHaruvy2017,Ert and Haruvy 2017,HL,46,1,9,2.1106638196203855,5
ErtHaruvy2017,Ert and Haruvy 2017,HL,47,1,9,2.6895811242982743,5
ErtHaruvy2017,Ert and Haruvy 2017,HL,48,0,9,2.488072579093277,5
ErtHaruvy2017,Ert and Haruvy 2017,HL,49,1,6,1.0481944988248868,5
ErtHaruvy2017,Ert and Haruvy 2017,HL,50,1,4,0.5018531577172689,5
ErtHaruvy2017,Ert and Haruvy 2017,HL,51,1,3,0.07499428304145113,5
ErtHaruvy2017,Ert and Haruvy 2017,HL,52,1,3,0.09407227749470622,5
ErtHaruvy2017,Ert and Haruvy 2017,HL,53,0,10,2.71,5
ErtHaruvy2017,Ert and Haruvy 2017,HL,54,1,4,0.3442060539545491,5
ErtHaruvy2017,Ert and Haruvy 2017,HL,55,1,8,1.7133036248013376,5
ErtHaruvy2017,Ert and Haruvy 2017,HL,56,1,4,0.4296838103071786,5
ErtHaruvy2017,Ert and Haruvy 2017,HL,57,1,4,0.48973165492992843,5
ErtHaruvy2017,Ert and Haruvy 2017,HL,58,1,3,0.31839691931148995,5
ErtHaruvy2017,Ert and Haruvy 2017,HL,59,1,8,1.7815327290399,5
ErtHaruvy2017,Ert and Haruvy 2017,HL,60,1,10,2.71,5
ErtHaruvy2017,Ert and Haruvy 2017,HL,1,0,5,0.827182725071907,6
ErtHaruvy2017,Ert and Haruvy 2017,HL,2,0,7,1.3521509316936136,6
ErtHaruvy2017,Ert and Haruvy 2017,HL,3,0,1,-0.37,6
ErtHaruvy2017,Ert and Haruvy 2017,HL,4,0,9,2.5376072119083255,6
ErtHaruvy2017,Ert and Haruvy 2017,HL,5,1,3,0.13627653078874574,6
ErtHaruvy2017,Ert and Haruvy 2017,HL,6,1,6,1.0031900729984045,6
ErtHaruvy2017,Ert and Haruvy 2017,HL,7,1,6,1.1296082077082246,6
ErtHaruvy2017,Ert and Haruvy 2017,HL,8,1,7,1.1757715710951016,6
ErtHaruvy2017,Ert and Haruvy 2017,HL,9,1,5,0.7189854230592028,6
ErtHaruvy2017,Ert and Haruvy 2017,HL,10,1,3,0.05620646999683231,6
ErtHaruvy2017,Ert and Haruvy 2017,HL,11,1,7,1.3232811233820394,6
ErtHaruvy2017,Ert and Haruvy 2017,HL,12,1,7,1.418100115461275,6
ErtHaruvy2017,Ert and Haruvy 2017,HL,13,1,8,1.8637414043070748,6
ErtHaruvy2017,Ert and Haruvy 2017,HL,14,1,6,0.988978838501498,6
ErtHaruvy2017,Ert and Haruvy 2017,HL,15,0,9,2.5107324276771394,6
ErtHaruvy2017,Ert and Haruvy 2017,HL,16,0,6,0.9367539998842402,6
ErtHaruvy2017,Ert and Haruvy 2017,HL,17,1,4,0.5159394794213585,6
ErtHaruvy2017,Ert and Haruvy 2017,HL,18,1,5,0.7349013648275285,6
ErtHaruvy2017,Ert and Haruvy 2017,HL,19,1,6,1.1022537988843395,6
ErtHaruvy2017,Ert and Haruvy 2017,HL,20,1,10,2.71,6
ErtHaruvy2017,Ert and Haruvy 2017,HL,21,1,4,0.3270383401052095,6
ErtHaruvy2017,Ert and Haruvy 2017,HL,22,1,4,0.5629578401753679,6
ErtHaruvy2017,Ert and Haruvy 2017,HL,23,1,6,1.0879001909168435,6
ErtHaruvy2017,Ert and Haruvy 2017,HL,24,1,1,-0.37,6
ErtHaruvy2017,Ert and Haruvy 2017,HL,25,1,2,-0.19200454631820318,6
ErtHaruvy2017,Ert and Haruvy 2017,HL,26,1,4,0.4276756938104518,6
ErtHaruvy2017,Ert and Haruvy 2017,HL,27,1,8,1.8232457229588181,6
ErtHaruvy2017,Ert and Haruvy 2017,HL,28,1,7,1.3974532863870264,6
ErtHaruvy2017,Ert and Haruvy 2017,HL,29,0,10,2.71,6
ErtHaruvy2017,Ert and Haruvy 2017,HL,30,1,6,0.9897061359602958,6
ErtHaruvy2017,Ert and Haruvy 2017,HL,31,1,8,1.7573264810582623,6
ErtHaruvy2017,Ert and Haruvy 2017,HL,32,1,9,2.522174078039825,6
ErtHaruvy2017,Ert and Haruvy 2017,HL,33,1,1,-0.37,6
ErtHaruvy2017,Ert and Haruvy 2017,HL,34,1,5,0.741059764032252,6
ErtHaruvy2017,Ert and Haruvy 2017,HL,35,1,1,-0.37,6
ErtHaruvy2017,Ert and Haruvy 2017,HL,36,1,10,2.71,6
ErtHaruvy2017,Ert and Haruvy 2017,HL,37,1,1,-0.37,6
ErtHaruvy2017,Ert and Haruvy 2017,HL,38,1,3,0.24905116111040118,6
ErtHaruvy2017,Ert and Haruvy 2017,HL,39,1,7,1.371327183707617,6
ErtHaruvy2017,Ert and Haruvy 2017,HL,40,1,2,-0.14971085421741007,6
ErtHaruvy2017,Ert and Haruvy 2017,HL,41,1,4,0.41936691916082053,6
ErtHaruvy2017,Ert and Haruvy 2017,HL,42,0,7,1.277008475237526,6
ErtHaruvy2017,Ert and Haruvy 2017,HL,43,0,5,0.7068135941261425,6
ErtHaruvy2017,Ert and Haruvy 2017,HL,44,1,2,-0.3124101893790066,6
ErtHaruvy2017,Ert and Haruvy 2017,HL,45,0,7,1.3665882153529674,6
ErtHaruvy2017,Ert and Haruvy 2017,HL,46,1,4,0.33207771863788366,6
ErtHaruvy2017,Ert and Haruvy 2017,HL,47,1,6,0.9281241639284417,6
ErtHaruvy2017,Ert and Haruvy 2017,HL,48,0,7,1.330369422547519,6
ErtHaruvy2017,Ert and Haruvy 2017,HL,49,1,6,1.0342243164079263,6
ErtHaruvy2017,Ert and Haruvy 2017,HL,50,1,7,1.4855009166523814,6
ErtHaruvy2017,Ert and Haruvy 2017,HL,51,1,7,1.4253603295935318,6
ErtHaruvy2017,Ert and Haruvy 2017,HL,52,1,2,-0.07490109268575906,6
ErtHaruvy2017,Ert and Haruvy 2017,HL,53,0,4,0.5201111035957001,6
ErtHaruvy2017,Ert and Haruvy 2017,HL,54,1,4,0.3508754093130119,6
ErtHaruvy2017,Ert and Haruvy 2017,HL,55,1,10,2.71,6
ErtHaruvy2017,Ert and Haruvy 2017,HL,56,1,5,0.8172739970777183,6
ErtHaruvy2017,Ert and Haruvy 2017,HL,57,1,7,1.1736153681669383,6
ErtHaruvy2017,Ert and Haruvy 2017,HL,58,1,4,0.4601067688455805,6
ErtHaruvy2017,Ert and Haruvy 2017,HL,59,1,10,2.71,6
ErtHaruvy2017,Ert and Haruvy 2017,HL,60,1,8,1.6399001010647043,6
ErtHaruvy2017,Ert and Haruvy 2017,HL,1,0,9,2.526875337231904,7
ErtHaruvy2017,Ert and Haruvy 2017,HL,2,0,9,2.193332685558125,7
ErtHaruvy2017,Ert and Haruvy 2017,HL,3,0,10,2.71,7
ErtHaruvy2017,Ert and Haruvy 2017,HL,4,0,5,0.6157645583944394,7
ErtHaruvy2017,Ert and Haruvy 2017,HL,5,1,1,-0.37,7
ErtHaruvy2017,Ert and Haruvy 2017,HL,6,1,3,0.3171382059482858,7
ErtHaruvy2017,Ert and Haruvy 2017,HL,7,1,1,-0.37,7
ErtHaruvy2017,Ert and Haruvy 2017,HL,8,1,8,1.9349291336908936,7
ErtHaruvy2017,Ert and Haruvy 2017,HL,9,1,7,1.2611570457648484,7
ErtHaruvy2017,Ert and Haruvy 2017,HL,10,1,6,0.9795672907494009,7
ErtHaruvy2017,Ert and Haruvy 2017,HL,11,1,1,-0.37,7
ErtHaruvy2017,Ert and Haruvy 2017,HL,12,1,9,2.619184980094433,7
ErtHaruvy2017,Ert and Haruvy 2017,HL,13,1,6,1.1332373678218572,7
ErtHaruvy2017,Ert and Haruvy 2017,HL,14,1,2,-0.2938205013796687,7
ErtHaruvy2017,Ert and Haruvy 2017,HL,15,0,5,0.6397666766913608,7
ErtHaruvy2017,Ert and Haruvy 2017,HL,16,0,6,0.8505342360353098,7
ErtHaruvy2017,Ert and Haruvy 2017,HL,17,1,6,0.9691945511149243,7
ErtHaruvy2017,Ert and Haruvy 2017,HL,18,1,6,0.9184958716854452,7
ErtHaruvy2017,Ert and Haruvy 2017,HL,19,1,3,0.06150224913842976,7
ErtHaruvy2017,Ert and Haruvy 2017,HL,20,1,4,0.5881863582204095,7
ErtHaruvy2017,Ert and Haruvy 2017,HL,21,1,3,0.1706301806913689,7
ErtHaruvy2017,Ert and Haruvy 2017,HL,22,1,7,1.2670446992106734,7
ErtHaruvy2017,Ert and Haruvy 2017,HL,23,1,3,0.24620612709317358,7
ErtHaruvy2017,Ert and Haruvy 2017,HL,24,1,5,0.7118619814375415,7
ErtHaruvy2017,Ert and Haruvy 2017,HL,25,1,1,-0.37,7
ErtHaruvy2017,Ert and Haruvy 2017,HL,26,1,1,-0.37,7
ErtHaruvy2017,Ert and Haruvy 2017,HL,27,1,8,1.617980697466992,7
ErtHaruvy2017,Ert and Haruvy 2017,HL,28,1,8,1.5015244136657566,7
ErtHaruvy2017,Ert and Haruvy 2017,HL,29,0,9,1.9577192701306194,7
ErtHaruvy2017,Ert and Haruvy 2017,HL,30,1,2,-0.35714533587917685,7
ErtHaruvy2017,Ert and Haruvy 2017,HL,31,1,5,0.7965807406138629,7
ErtHaruvy2017,Ert and Haruvy 2017,HL,32,1,9,2.1260473519191145,7
ErtHaruvy2017,Ert and Haruvy 2017,HL,33,1,9,2.459258503401652,7
ErtHaruvy2017,Ert and Haruvy 2017,HL,34,1,4,0.34499415556900204,7
ErtHaruvy2017,Ert and Haruvy 2017,HL,35,1,10,2.71,7
ErtHaruvy2017,Ert and Haruvy 2017,HL,36,1,5,0.7021726006781682,7
ErtHaruvy2017,Ert and Haruvy 2017,HL,37,1,8,1.512326260684058,7
ErtHaruvy2017,Ert and Haruvy 2017,HL,38,1,3,0.28136746555566794,7
ErtHaruvy2017,Ert and Haruvy 2017,HL,39,1,5,0.6119928395841271,7
ErtHaruvy2017,Ert and Haruvy 2017,HL,40,1,2,-0.3682671747915447,7
ErtHaruvy2017,Ert and Haruvy 2017,HL,41,1,5,0.7979517523013056,7
ErtHaruvy2017,Ert and Haruvy 2017,HL,42,0,8,1.7646775780105963,7
ErtHaruvy2017,Ert and Haruvy 2017,HL,43,0,1,-0.37,7
ErtHaruvy2017,Ert and Haruvy 2017,HL,44,1,10,2.71,7
ErtHaruvy2017,Ert and Haruvy 2017,HL,45,0,7,1.3246601324016227,7
ErtHaruvy2017,Ert and Haruvy 2017,HL,46,1,1,-0.37,7
ErtHaruvy2017,Ert and Haruvy 2017,HL,47,1,1,-0.37,7
ErtHaruvy2017,Ert and Haruvy 2017,HL,48,0,9,2.552931334581226,7
ErtHaruvy2017,Ert and Haruvy 2017,HL,49,1,8,1.7115011455770581,7
ErtHaruvy2017,Ert and Haruvy 2017,HL,50,1,3,0.04115681782597676,7
ErtHaruvy2017,Ert and Haruvy 2017,HL,51,1,6,1.1344118252163753,7
ErtHaruvy2017,Ert and Haruvy 2017,HL,52,1,2,-0.12297336550429461,7
ErtHaruvy2017,Ert and Haruvy 2017,HL,53,0,2,-0.12605087149888275,7
ErtHaruvy2017,Ert and Haruvy 2017,HL,54,1,1,-0.37,7
ErtHaruvy2017,Ert and Haruvy 2017,HL,55,1,10,2.71,7
ErtHaruvy2017,Ert and Haruvy 2017,HL,56,1,9,2.3202781802695243,7
ErtHaruvy2017,Ert and Haruvy 2017,HL,57,1,5,0.7902594037074595,7
ErtHaruvy2017,Ert and Haruvy 2017,HL,58,1,10,2.71,7
ErtHaruvy2017,Ert and Haruvy 2017,HL,59,1,2,-0.05721222141757604,7
ErtHaruvy2017,Ert and Haruvy 2017,HL,60,1,6,1.0374012970132753,7
ErtHaruvy2017,Ert and Haruvy 2017,HL,1,0,4,0.5149882062291726,8
ErtHaruvy2017,Ert and Haruvy 2017,HL,2,0,7,1.3520249694818631,8
ErtHaruvy2017,Ert and Haruvy 2017,HL,3,0,2,-0.16756264146417377,8
ErtHaruvy2017,Ert and Haruvy 2017,HL,4,0,3,0.07372889429330826,8
ErtHaruvy2017,Ert and Haruvy 2017,HL,5,1,1,-0.37,8
ErtHaruvy2017,Ert and Haruvy 2017,HL,6,1,5,0.7556293732346967,8
ErtHaruvy2017,Ert and Haruvy 2017,HL,7,1,9,2.6005703829042615,8
ErtHaruvy2017,Ert and Haruvy 2017,HL,8,1,10,2.71,8
ErtHaruvy2017,Ert and Haruvy 2017,HL,9,1,10,2.71,8
ErtHaruvy2017,Ert and Haruvy 2017,HL,10,1,2,-0.03873447280377146,8
ErtHaruvy2017,Ert and Haruvy 2017,HL,11,1,4,0.32212196514243263,8
ErtHaruvy2017,Ert and Haruvy 2017,HL,12,1,4,0.3216491074929945,8
ErtHaruvy2017,Ert and Haruvy 2017,HL,13,1,8,1.8441794035257772,8
ErtHaruvy2017,Ert and Haruvy 2017,HL,14,1,10,2.71,8
ErtHaruvy2017,Ert and Haruvy 2017,HL,15,0,2,-0.2660587681271136,8
ErtHaruvy2017,Ert and Haruvy 2017,HL,16,0,6,0.9703575513558462,8
ErtHaruvy2017,Ert and Haruvy 2017,HL,17,1,8,1.5864156638877467,8
ErtHaruvy2017,Ert and Haruvy 2017,HL,18,1,9,2.4140792653895913,8
ErtHaruvy2017,Ert and Haruvy 2017,HL,19,1,8,1.886834288192913,8
ErtHaruvy2017,Ert and Haruvy 2017,HL,20,1,8,1.805870895422995,8
ErtHaruvy2017,Ert and Haruvy 2017,HL,21,1,9,2.7022901948168876,8
ErtHaruvy2017,Ert and Haruvy 2017,HL,22,1,5,0.6710433146497234,8
ErtHaruvy2017,Ert and Haruvy 2017,HL,23,1,4,0.4736329812486656,8
ErtHaruvy2017,Ert and Haruvy 2017,HL,24,1,7,1.3596671464806422,8
ErtHaruvy2017,Ert and Haruvy 2017,HL,25,1,8,1.701429756381549,8
ErtHaruvy2017,Ert and Haruvy 2017,HL,26,1,10,2.71,8
ErtHaruvy2017,Ert and Haruvy 2017,HL,27,1,2,-0.32039354348555205,8
ErtHaruvy2017,Ert and Haruvy 2017,HL,28,1,9,2.3817766930628568,8
ErtHaruvy2017,Ert and Haruvy 2017,HL,29,0,4,0.39997724511194976,8
ErtHaruvy2017,Ert and Haruvy 2017,HL,30,1,7,1.375799325471744,8
ErtHaruvy2017,Ert and Haruvy 2017,HL,31,1,1,-0.37,8
ErtHaruvy2017,Ert and Haruvy 2017,HL,32,1,10,2.71,8
ErtHaruvy2017,Ert and Haruvy 2017,HL,33,1,3,0.03653642270015553,8
ErtHaruvy2017,Ert and Haruvy 2017,HL,34,1,2,-0.058068771269172426,8
ErtHaruvy2017,Ert and Haruvy 2017,HL,35,1,3,0.27470382688799877,8
ErtHaruvy2017,Ert and Haruvy 2017,HL,36,1,9,2.0169097929261626,8
ErtHaruvy2017,Ert and Haruvy 2017,HL,37,1,1,-0.37,8
ErtHaruvy2017,Ert and Haruvy 2017,HL,38,1,2,-0.1510981938615441,8
ErtHaruvy2017,Ert and Haruvy 2017,HL,39,1,6,1.0112530939979478,8
ErtHaruvy2017,Ert and Haruvy 2017,HL,40,1,9,2.539131670091301,8
ErtHaruvy2017,Ert and Haruvy 2017,HL,41,1,6,1.1106080032885073,8
ErtHaruvy2017,Ert and Haruvy 2017,HL,42,0,10,2.71,8
ErtHaruvy2017,Ert and Haruvy 2017,HL,43,0,3,0.26856238449458036,8
ErtHaruvy2017,Ert and Haruvy 2017,HL,44,1,6,0.9763349415967241,8
ErtHaruvy2017,Ert and Haruvy 2017,HL,45,0,6,0.9274570796173065,8
ErtHaruvy2017,Ert and Haruvy 2017,HL,46,1,5,0.7581756271654739,8
ErtHaruvy2017,Ert and Haruvy 2017,HL,47,1,7,1.2536479700030758,8
ErtHaruvy2017,Ert and Haruvy 2017,HL,48,0,8,1.523521824325435,8
ErtHaruvy2017,Ert and Haruvy 2017,HL,49,1,10,2.71,8
ErtHaruvy2017,Ert and Haruvy 2017,HL,50,1,1,-0.37,8
ErtHaruvy2017,Ert and Haruvy 2017,HL,51,1,8,1.6513809465616942,8
ErtHaruvy2017,Ert and Haruvy 2017,HL,52,1,1,-0.37,8
ErtHaruvy2017,Ert and Haruvy 2017,HL,53,0,9,2.0586027860082687,8
ErtHaruvy2017,Ert and Haruvy 2017,HL,54,1,8,1.6004796524671838,8
ErtHaruvy2017,Ert and Haruvy 2017,HL,55,1,7,1.1887182085961103,8
ErtHaruvy2017,Ert and Haruvy 2017,HL,56,1,3,0.2702340458775871,8
ErtHaruvy2017,Ert and Haruvy 2017,HL,57,1,10,2.71,8
ErtHaruvy2017,Ert and Haruvy 2017,HL,58,1,9,2.6840751568228005,8
ErtHaruvy2017,Ert and Haruvy 2017,HL,59,1,7,1.3123821731237695,8
ErtHaruvy2017,Ert and Haruvy 2017,HL,60,1,4,0.5415858175698668,8
ErtHaruvy2017,Ert and Haruvy 2017,HL,1,0,1,-0.37,9
ErtHaruvy2017,Ert and Haruvy 2017,HL,2,0,7,1.2872103152191265,9
ErtHaruvy2017,Ert and Haruvy 2017,HL,3,0,10,2.71,9
ErtHaruvy2017,Ert and Haruvy 2017,HL,4,0,1,-0.37,9
ErtHaruvy2017,Ert and Haruvy 2017,HL,5,1,1,-0.37,9
ErtHaruvy2017,Ert and Haruvy 2017,HL,6,1,8,1.5912613017996773,9
ErtHaruvy2017,Ert and Haruvy 2017,HL,7,1,6,0.9476293075364083,9
ErtHaruvy2017,Ert and Haruvy 2017,HL,8,1,9,2.3046555144060403,9
ErtHaruvy2017,Ert and Haruvy 2017,HL,9,1,3,0.10303411506116392,9
ErtHaruvy2017,Ert and Haruvy 2017,HL,10,1,9,2.0673344484344125,9
ErtHaruvy2017,Ert and Haruvy 2017,HL,11,1,9,2.163450133744627,9
ErtHaruvy2017,Ert and Haruvy 2017,HL,12,1,9,2.025926790898666,9
ErtHaruvy2017,Ert and Haruvy 2017,HL,13,1,2,-0.12565551817417142,9
ErtHaruvy2017,Ert and Haruvy 2017,HL,14,1,3,0.18786835724720732,9
ErtHaruvy2017,Ert and Haruvy 2017,HL,15,0,8,1.554376194262877,9
ErtHaruvy2017,Ert and Haruvy 2017,HL,16,0,4,0.4775644693034701,9
ErtHaruvy2017,Ert and Haruvy 2017,HL,17,1,3,0.06663405941100792,9
ErtHaruvy2017,Ert and Haruvy 2017,HL,18,1,7,1.2323238882282748,9
ErtHaruvy2017,Ert and Haruvy 2017,HL,19,1,8,1.6950084005156532,9
ErtHaruvy2017,Ert and Haruvy 2017,HL,20,1,5,0.7348990141553804,9
ErtHaruvy2017,Ert and Haruvy 2017,HL,21,1,1,-0.37,9
ErtHaruvy2017,Ert and Haruvy 2017,HL,22,1,2,-0.059459491148591004,9
ErtHaruvy2017,Ert and Haruvy 2017,HL,23,1,10,2.71,9
ErtHaruvy2017,Ert and Haruvy 2017,HL,24,1,8,1.7263823241135106,9
ErtHaruvy2017,Ert and Haruvy 2017,HL,25,1,6,1.0539889304898677,9
ErtHaruvy2017,Ert and Haruvy 2017,HL,26,1,4,0.37687829532893374,9
ErtHaruvy2017,Ert and Haruvy 2017,HL,27,1,8,1.6031300671258941,9
ErtHaruvy2017,Ert and Haruvy 2017,HL,28,1,10,2.71,9
ErtHaruvy2017,Ert and Haruvy 2017,HL,29,0,8,1.769684316967614,9
ErtHaruvy2017,Ert and Haruvy 2017,HL,30,1,8,1.7450287425983697,9
ErtHaruvy2017,Ert and Haruvy 2017,HL,31,1,4,0.48393635129556056,9
ErtHaruvy2017,Ert and Haruvy 2017,HL,32,1,6,1.0130366239929571,9
ErtHaruvy2017,Ert and Haruvy 2017,HL,33,1,9,1.9772827767487615,9
ErtHaruvy2017,Ert and Haruvy 2017,HL,34,1,9,2.415736148962751,9
ErtHaruvy2017,Ert and Haruvy 2017,HL,35,1,7,1.352975703482516,9
ErtHaruvy2017,Ert and Haruvy 2017,HL,36,1,2,-0.2631924100033939,9
ErtHaruvy2017,Ert and Haruvy 2017,HL,37,1,5,0.8481416941760107,9
ErtHaruvy2017,Ert and Haruvy 2017,HL,38,1,10,2.71,9
ErtHaruvy2017,Ert and Haruvy 2017,HL,39,1,1,-0.37,9
ErtHaruvy2017,Ert and Haruvy 2017,HL,40,1,3,0.2451734921592288,9
ErtHaruvy2017,Ert and Haruvy 2017,HL,41,1,7,1.3904674831591546,9
ErtHaruvy2017,Ert and Haruvy 2017,HL,42,0,8,1.7831338733527808,9
ErtHaruvy2017,Ert and Haruvy 2017,HL,43,0,10,2.71,9
ErtHaruvy2017,Ert and Haruvy 2017,HL,44,1,3,0.297593089172151,9
ErtHaruvy2017,Ert and Haruvy 2017,HL,45,0,6,1.033268841053359,9
ErtHaruvy2017,Ert and Haruvy 2017,HL,46,1,3,0.25926516791572796,9
ErtHaruvy2017,Ert and Haruvy 2017,HL,47,1,1,-0.37,9
ErtHaruvy2017,Ert and Haruvy 2017,HL,48,0,9,2.543434590343386,9
ErtHaruvy2017,Ert and Haruvy 2017,HL,49,1,9,2.621973363114521,9
ErtHaruvy2017,Ert and Haruvy 2017,HL,50,1,7,1.4534582025185228,9
ErtHaruvy2017,Ert and Haruvy 2017,HL,51,1,7,1.4556996260862798,9
ErtHaruvy2017,Ert and Haruvy 2017,HL,52,1,1,-0.37,9
ErtHaruvy2017,Ert and Haruvy 2017,HL,53,0,7,1.2072382155572994,9
ErtHaruvy2017,Ert and Haruvy 2017,HL,54,1,4,0.3217715496220626,9
ErtHaruvy2017,Ert and Haruvy 2017,HL,55,1,8,1.9248416697559878,9
ErtHaruvy2017,Ert and Haruvy 2017,HL,56,1,5,0.6037429568497463,9
ErtHaruvy2017,Ert and Haruvy 2017,HL,57,1,5,0.6682366388617083,9
ErtHaruvy2017,Ert and Haruvy 2017,HL,58,1,4,0.4849389649857767,9
ErtHaruvy2017,Ert and Haruvy 2017,HL,59,1,2,-0.2665319293551147,9
ErtHaruvy2017,Ert and Haruvy 2017,HL,60,1,10,2.71,9
ErtHaruvy2017,Ert and Haruvy 2017,HL,1,0,6,1.1290205490542575,10
ErtHaruvy2017,Ert and Haruvy 2017,HL,2,0,6,0.9989647182403132,10
ErtHaruvy2017,Ert and Haruvy 2017,HL,3,0,9,2.5366529038734735,10
ErtHaruvy2017,Ert and Haruvy 2017,HL,4,0,8,1.6196739725023508,10
ErtHaruvy2017,Ert and Haruvy 2017,HL,5,1,10,2.71,10
ErtHaruvy2017,Ert and Haruvy 2017,HL,6,1,1,-0.37,10
ErtHaruvy2017,Ert and Haruvy 2017,HL,7,1,2,-0.017040519677102517,10
ErtHaruvy2017,Ert and Haruvy 2017,HL,8,1,10,2.71,10
ErtHaruvy2017,Ert and Haruvy 2017,HL,9,1,1,-0.37,10
ErtHaruvy2017,Ert and Haruvy 2017,HL,10,1,4,0.4196022752067074,10
ErtHaruvy2017,Ert and Haruvy 2017,HL,11,1,2,-0.25377404063940046,10
ErtHaruvy2017,Ert and Haruvy 2017,HL,12,1,3,0.0856907226657495,10
ErtHaruvy2017,Ert and Haruvy 2017,HL,13,1,9,2.502677275156602,10
ErtHaruvy2017,Ert and Haruvy 2017,HL,14,1,8,1.5166775616956876,10
ErtHaruvy2017,Ert and Haruvy 2017,HL,15,0,5,0.6232145825400948,10
ErtHaruvy2017,Ert and Haruvy 2017,HL,16,0,1,-0.37,10
ErtHaruvy2017,Ert and Haruvy 2017,HL,17,1,9,2.1716355355083943,10
ErtHaruvy2017,Ert and Haruvy 2017,HL,18,1,6,1.083399758231826,10
ErtHaruvy2017,Ert and Haruvy 2017,HL,19,1,1,-0.37,10
ErtHaruvy2017,Ert and Haruvy 2017,HL,20,1,5,0.7804056762717664,10
ErtHaruvy2017,Ert and Haruvy 2017,HL,21,1,9,2.705351752229035,10
ErtHaruvy2017,Ert and Haruvy 2017,HL,22,1,1,-0.37,10
ErtHaruvy2017,Ert and Haruvy 2017,HL,23,1,2,-0.04619506819173691,10
ErtHaruvy2017,Ert and Haruvy 2017,HL,24,1,10,2.71,10
ErtHaruvy2017,Ert and Haruvy 2017,HL,25,1,4,0.5403140555205754,10
ErtHaruvy2017,Ert and Haruvy 2017,HL,26,1,10,2.71,10
ErtHaruvy2017,Ert and Haruvy 2017,HL,27,1,5,0.7043629504600539,10
ErtHaruvy2017,Ert and Haruvy 2017,HL,28,1,10,2.71,10
ErtHaruvy2017,Ert and Haruvy 2017,HL,29,0,1,-0.37,10
ErtHaruvy2017,Ert and Haruvy 2017,HL,30,1,3,0.12741665766108784,10
ErtHaruvy2017,Ert and Haruvy 2017,HL,31,1,5,0.617128483983688,10
ErtHaruvy2017,Ert and Haruvy 2017,HL,32,1,6,1.0801885267952456,10
ErtHaruvy2017,Ert and Haruvy 2017,HL,33,1,1,-0.37,10
ErtHaruvy2017,Ert and Haruvy 2017,HL,34,1,3,0.20018165674991908,10
ErtHaruvy2017,Ert and Haruvy 2017,HL,35,1,9,2.1860936631727963,10
ErtHaruvy2017,Ert and Haruvy 2017,HL,36,1,7,1.170581166539341,10
ErtHaruvy2017,Ert and Haruvy 2017,HL,37,1,8,1.5432677267957478,10
ErtHaruvy2017,Ert and Haruvy 2017,HL,38,1,8,1.8232232021726666,10
ErtHaruvy2017,Ert and Haruvy 2017,HL,39,1,1,-0.37,10
ErtHaruvy2017,Ert and Haruvy 2017,HL,40,1,1,-0.37,10
ErtHaruvy2017,Ert and Haruvy 2017,HL,41,1,2,-0.06060332449153061,10
ErtHaruvy2017,Ert and Haruvy 2017,HL,42,0,1,-0.37,10
ErtHaruvy2017,Ert and Haruvy 2017,HL,43,0,10,2.71,10
ErtHaruvy2017,Ert and Haruvy 2017,HL,44,1,3,0.18819087602896617,10
ErtHaruvy2017,Ert and Haruvy 2017,HL,45,0,9,2.0154619976505637,10
ErtHaruvy2017,Ert and Haruvy 2017,HL,46,1,7,1.3912030745251105,10
ErtHaruvy2017,Ert and Haruvy 2017,HL,47,1,6,0.8526099776849151,10
ErtHaruvy2017,Ert and Haruvy 2017,HL,48,0,6,1.0577441150322555,10
ErtHaruvy2017,Ert and Haruvy 2017,HL,49,1,5,0.848248619036749,10
ErtHaruvy2017,Ert and Haruvy 2017,HL,50,1,9,2.356916049448773,10
ErtHaruvy2017,Ert and Haruvy 2017,HL,51,1,4,0.3329239624133334,10
ErtHaruvy2017,Ert and Haruvy 2017,HL,52,1,10,2.71,10
ErtHaruvy2017,Ert and Haruvy 2017,HL,53,0,8,1.6789348563784734,10
ErtHaruvy2017,Ert and Haruvy 2017,HL,54,1,7,1.2895479093305766,10
ErtHaruvy2017,Ert and Haruvy 2017,HL,55,1,8,1.6234004875458776,10
ErtHaruvy2017,Ert and Haruvy 2017,HL,56,1,4,0.4034594848868437,10
ErtHaruvy2017,Ert and Haruvy 2017,HL,57,1,2,-0.32446857456117867,10
ErtHaruvy2017,Ert and Haruvy 2017,HL,58,1,6,0.9003692351514473,10
ErtHaruvy2017,Ert and Haruvy 2017,HL,59,1,1,-0.37,10
ErtHaruvy2017,Ert and Haruvy 2017,HL,60,1,2,-0.24219930477440357,10
ErtHaruvy2017,Ert and Haruvy 2017,HL,1,0,9,2.4754097427614035,11
ErtHaruvy2017,Ert and Haruvy 2017,HL,2,0,2,-0.3105956923961639,11
ErtHaruvy2017,Ert and Haruvy 2017,HL,3,0,2,-0.07978215625509616,11
ErtHaruvy2017,Ert and Haruvy 2017,HL,4,0,1,-0.37,11
ErtHaruvy2017,Ert and Haruvy 2017,HL,5,1,4,0.5234353535692207,11
ErtHaruvy2017,Ert and Haruvy 2017,HL,6,1,2,-0.3509459396637976,11
ErtHaruvy2017,Ert and Haruvy 2017,HL,7,1,8,1.909852487752214,11
ErtHaruvy2017,Ert and Haruvy 2017,HL,8,1,5,0.6141147483093664,11
ErtHaruvy2017,Ert and Haruvy 2017,HL,9,1,8,1.5224927857797592,11
ErtHaruvy2017,Ert and Haruvy 2017,HL,10,1,6,0.9964455361943692,11
ErtHaruvy2017,Ert and Haruvy 2017,HL,11,1,6,1.0953781865769996,11
ErtHaruvy2017,Ert and Haruvy 2017,HL,12,1,10,2.71,11
ErtHaruvy2017,Ert and Haruvy 2017,HL,13,1,8,1.8810418602544814,11
ErtHaruvy2017,Ert and Haruvy 2017,HL,14,1,4,0.43475655738497154,11
ErtHaruvy2017,Ert and Haruvy 2017,HL,15,0,5,0.8010868654353545,11
ErtHaruvy2017,Ert and Haruvy 2017,HL,16,0,5,0.5916845053667202,11
ErtHaruvy2017,Ert and Haruvy 2017,HL,17,1,8,1.8905631877575069,11
ErtHaruvy2017,Ert and Haruvy 2017,HL,18,1,1,-0.37,11
ErtHaruvy2017,Ert and Haruvy 2017,HL,19,1,4,0.41294259095098823,11
ErtHaruvy2017,Ert and Haruvy 2017,HL,20,1,9,2.4070551227405668,11
ErtHaruvy2017,Ert and Haruvy 2017,HL,21,1,9,2.5104106021206825,11
ErtHaruvy2017,Ert and Haruvy 2017,HL,22,1,7,1.3096748974826187,11
ErtHaruvy2017,Ert and Haruvy 2017,HL,23,1,1,-0.37,11
ErtHaruvy2017,Ert and Haruvy 2017,HL,24,1,8,1.6005159214138984,11
ErtHaruvy2017,Ert and Haruvy 2017,HL,25,1,1,-0.37,11
ErtHaruvy2017,Ert and Haruvy 2017,HL,26,1,10,2.71,11
ErtHaruvy2017,Ert and Haruvy 2017,HL,27,1,5,0.621223968155682,11
ErtHaruvy2017,Ert and Haruvy 2017,HL,28,1,2,-0.2889800156280398,11
ErtHaruvy2017,Ert and Haruvy 2017,HL,29,0,8,1.5311751708900556,11
ErtHaruvy2017,Ert and Haruvy 2017,HL,30,1,9,2.178583472138271,11
ErtHaruvy2017,Ert and Haruvy 2017,HL,31,1,2,-0.3526654249802232,11
ErtHaruvy2017,Ert and Haruvy 2017,HL,32,1,2,-0.0011561351642012108,11
ErtHaruvy2017,Ert and Haruvy 2017,HL,33,1,8,1.8935627950914204,11
ErtHaruvy2017,Ert and Haruvy 2017,HL,34,1,4,0.3401513952994719,11
ErtHaruvy2017,Ert and Haruvy 2017,HL,35,1,6,1.1284234997350722,11
ErtHaruvy2017,Ert and Haruvy 2017,HL,36,1,10,2.71,11
ErtHaruvy2017,Ert and Haruvy 2017,HL,37,1,5,0.6977970459451899,11
ErtHaruvy2017,Ert and Haruvy 2017,HL,38,1,8,1.5461139638209715,11
ErtHaruvy2017,Ert and Haruvy 2017,HL,39,1,3,0.10175392674747855,11
ErtHaruvy2017,Ert and Haruvy 2017,HL,40,1,8,1.7787300137011335,11
ErtHaruvy2017,Ert and Haruvy 2017,HL,41,1,6,0.9432538339402526,11
ErtHaruvy2017,Ert and Haruvy 2017,HL,42,0,6,0.9398995254421606,11
ErtHaruvy2017,Ert and Haruvy 2017,HL,43,0,1,-0.37,11
ErtHaruvy2017,Ert and Haruvy 2017,HL,44,1,9,2.5080270477291196,11
ErtHaruvy2017,Ert and Haruvy 2017,HL,45,0,6,0.9315911130513995,11
ErtHaruvy2017,Ert and Haruvy 2017,HL,46,1,5,0.6940605171769857,11
ErtHaruvy2017,Ert and Haruvy 2017,HL,47,1,5,0.7750559018692001,11
ErtHaruvy2017,Ert and Haruvy 2017,HL,48,0,6,0.9925646044546738,11
ErtHaruvy2017,Ert and Haruvy 2017,HL,49,1,4,0.47513712020590904,11
ErtHaruvy2017,Ert and Haruvy 2017,HL,50,1,7,1.3954780793050303,11
ErtHaruvy2017,Ert and Haruvy 2017,HL,51,1,1,-0.37,11
ErtHaruvy2017,Ert and Haruvy 2017,HL,52,1,3,0.2958777912007645,11
ErtHaruvy2017,Ert and Haruvy 2017,HL,53,0,10,2.71,11
ErtHaruvy2017,Ert and Haruvy 2017,HL,54,1,4,0.40181907850084825,11
ErtHaruvy2017,Ert and Haruvy 2017,HL,55,1,2,0.0016394772753119957,11
ErtHaruvy2017,Ert and Haruvy 2017,HL,56,1,10,2.71,11
ErtHaruvy2017,Ert and Haruvy 2017,HL,57,1,6,1.1389434960670768,11
ErtHaruvy2017,Ert and Haruvy 2017,HL,58,1,4,0.5016485722875222,11
ErtHaruvy2017,Ert and Haruvy 2017,HL,59,1,6,1.0567322774557395,11
ErtHaruvy2017,Ert and Haruvy 2017,HL,60,1,6,1.0583842581603675,11
ErtHaruvy2017,Ert and Haruvy 2017,HL,1,0,3,0.09823440721491353,12
ErtHaruvy2017,Ert and Haruvy 2017,HL,2,0,4,0.453912863030564,12
ErtHaruvy2017,Ert and Haruvy 2017,HL,3,0,4,0.5576614971342496,12
ErtHaruvy2017,Ert and Haruvy 2017,HL,4,0,10,2.71,12
ErtHaruvy2017,Ert and Haruvy 2017,HL,5,1,1,-0.37,12
ErtHaruvy2017,Ert and Haruvy 2017,HL,6,1,1,-0.37,12
ErtHaruvy2017,Ert and Haruvy 2017,HL,7,1,5,0.6708862474234775,12
ErtHaruvy2017,Ert and Haruvy 2017,HL,8,1,4,0.3702538682497106,12
ErtHaruvy2017,Ert and Haruvy 2017,HL,9,1,10,2.71,12
ErtHaruvy2017,Ert and Haruvy 2017,HL,10,1,10,2.71,12
ErtHaruvy2017,Ert and Haruvy 2017,HL,11,1,6,0.8782648138469085,12
ErtHaruvy2017,Ert and Haruvy 2017,HL,12,1,6,0.97498833052814,12
ErtHaruvy2017,Ert and Haruvy 2017,HL,13,1,2,-0.08784525690600276,12
ErtHaruvy2017,Ert and Haruvy 2017,HL,14,1,1,-0.37,12
ErtHaruvy2017,Ert and Haruvy 2017,HL,15,0,6,1.1038245702628044,12
ErtHaruvy2017,Ert and Haruvy 2017,HL,16,0,10,2.71,12
ErtHaruvy2017,Ert and Haruvy 2017,HL,17,1,4,0.5667673045257107,12
ErtHaruvy2017,Ert and Haruvy 2017,HL,18,1,7,1.4851320629240945,12
ErtHaruvy2017,Ert and Haruvy 2017,HL,19,1,2,-0.13518111154437062,12
ErtHaruvy2017,Ert and Haruvy 2017,HL,20,1,10,2.71,12
ErtHaruvy2017,Ert and Haruvy 2017,HL,21,1,2,-0.2901637854799628,12
ErtHaruvy2017,Ert and Haruvy 2017,HL,22,1,4,0.3386665558628738,12
ErtHaruvy2017,Ert and Haruvy 2017,HL,23,1,3,0.31900668565183876,12
ErtHaruvy2017,Ert and Haruvy 2017,HL,24,1,3,0.28462516245199365,12
ErtHaruvy2017,Ert and Haruvy 2017,HL,25,1,3,0.10275986007414759,12
ErtHaruvy2017,Ert and Haruvy 2017,HL,26,1,9,2.179961888883263,12
ErtHaruvy2017,Ert and Haruvy 2017,HL,27,1,7,1.298957197656855,12
ErtHaruvy2017,Ert and Haruvy 2017,HL,28,1,1,-0.37,12
ErtHaruvy2017,Ert and Haruvy 2017,HL,29,0,2,-0.27788593925535676,12
ErtHaruvy2017,Ert and Haruvy 2017,HL,30,1,4,0.34579319110373036,12
ErtHaruvy2017,Ert and Haruvy 2017,HL,31,1,10,2.71,12
ErtHaruvy2017,Ert and Haruvy 2017,HL,32,1,8,1.5296161681460216,12
ErtHaruvy2017,Ert and Haruvy 2017,HL,33,1,4,0.5561761432792991,12
ErtHaruvy2017,Ert and Haruvy 2017,HL,34,1,10,2.71,12
ErtHaruvy2017,Ert and Haruvy 2017,HL,35,1,2,-0.0596611712872982,12
ErtHaruvy2017,Ert and Haruvy 2017,HL,36,1,3,0.12272401944035666,12
ErtHaruvy2017,Ert and Haruvy 2017,HL,37,1,2,-0.04496404601261017,12
ErtHaruvy2017,Ert and Haruvy 2017,HL,38,1,10,2.71,12
ErtHaruvy2017,Ert and Haruvy 2017,HL,39,1,9,2.5998829667828978,12
ErtHaruvy2017,Ert and Haruvy 2017,HL,40,1,8,1.7176503484835848,12
ErtHaruvy2017,Ert and Haruvy 2017,HL,41,1,10,2.71,12
ErtHaruvy2017,Ert and Haruvy 2017,HL,42,0,4,0.5130955324904062,12
ErtHaruvy2017,Ert and Haruvy 2017,HL,43,0,10,2.71,12
ErtHaruvy2017,Ert and Haruvy 2017,HL,44,1,2,-0.2743826960027218,12
ErtHaruvy2017,Ert and Haruvy 2017,HL,45,0,9,2.300449089584872,12
ErtHaruvy2017,Ert and Haruvy 2017,HL,46,1,8,1.5557799487700685,12
ErtHaruvy2017,Ert and Haruvy 2017,HL,47,1,1,-0.37,12
ErtHaruvy2017,Ert and Haruvy 2017,HL,48,0,7,1.3207880036951973,12
ErtHaruvy2017,Ert and Haruvy 2017,HL,49,1,1,-0.37,12
ErtHaruvy2017,Ert and Haruvy 2017,HL,50,1,7,1.4438648023549467,12
ErtHaruvy2017,Ert and Haruvy 2017,HL,51,1,10,2.71,12
ErtHaruvy2017,Ert and Haruvy 2017,HL,52,1,5,0.6647039402648807,12
ErtHaruvy2017,Ert and Haruvy 2017,HL,53,0,9,2.3026528274919835,12
ErtHaruvy2017,Ert and Haruvy 2017,HL,54,1,10,2.71,12
ErtHaruvy2017,Ert and Haruvy 2017,HL,55,1,1,-0.37,12
ErtHaruvy2017,Ert and Haruvy 2017,HL,56,1,7,1.3419505198812112,12
ErtHaruvy2017,Ert and Haruvy 2017,HL,57,1,7,1.4341827874630688,12
ErtHaruvy2017,Ert and Haruvy 2017,HL,58,1,2,-0.30474100837484003,12
ErtHaruvy2017,Ert and Haruvy 2017,HL,59,1,10,2.71,12
ErtHaruvy2017,Ert and Haruvy 2017,HL,60,1,3,0.1849354727496393,12
ErtHaruvy2017,Ert and Haruvy 2017,HL,1,0,9,2.3161877592280504,13
ErtHaruvy2017,Ert and Haruvy 2017,HL,2,0,10,2.71,13
ErtHaruvy2017,Ert and Haruvy 2017,HL,3,0,2,-0.16836820643395184,13
ErtHaruvy2017,Ert and Haruvy 2017,HL,4,0,8,1.7085681397886947,13
ErtHaruvy2017,Ert and Haruvy 2017,HL,5,1,7,1.4058270439878107,13
ErtHaruvy2017,Ert and Haruvy 2017,HL,6,1,2,-0.2745167570002377,13
ErtHaruvy2017,Ert and Haruvy 2017,HL,7,1,3,0.08119497582316398,13
ErtHaruvy2017,Ert and Haruvy 2017,HL,8,1,8,1.81791199487634,13
ErtHaruvy2017,Ert and Haruvy 2017,HL,9,1,7,1.2733157700533047,13
ErtHaruvy2017,Ert and Haruvy 2017,HL,10,1,8,1.7994902559183537,13
ErtHaruvy2017,Ert and Haruvy 2017,HL,11,1,5,0.6076817319262773,13
ErtHaruvy2017,Ert and Haruvy 2017,HL,12,1,6,1.0723725809017195,13
ErtHaruvy2017,Ert and Haruvy 2017,HL,13,1,9,2.3539791368786247,13
ErtHaruvy2017,Ert and Haruvy 2017,HL,14,1,7,1.3434103898284957,13
ErtHaruvy2017,Ert and Haruvy 2017,HL,15,0,3,0.18091845925664532,13
ErtHaruvy2017,Ert and Haruvy 2017,HL,16,0,2,0.002361612133681801,13
ErtHaruvy2017,Ert and Haruvy 2017,HL,17,1,4,0.5869035700918175,13
ErtHaruvy2017,Ert and Haruvy 2017,HL,18,1,2,-0.23868163431063294,13
ErtHaruvy2017,Ert and Haruvy 2017,HL,19,1,3,0.045238196279387924,13
ErtHaruvy2017,Ert and Haruvy 2017,HL,20,1,2,-0.04672907598316667,13
ErtHaruvy2017,Ert and Haruvy 2017,HL,21,1,3,0.21618849513819444,13
ErtHaruvy2017,Ert and Haruvy 2017,HL,22,1,6,1.0296542992582545,13
ErtHaruvy2017,Ert and Haruvy 2017,HL,23,1,10,2.71,13
ErtHaruvy2017,Ert and Haruvy 2017,HL,24,1,7,1.414631933341734,13
ErtHaruvy2017,Ert and Haruvy 2017,HL,25,1,3,0.08468961640726776,13
ErtHaruvy2017,Ert and Haruvy 2017,HL,26,1,7,1.22378863169346,13
ErtHaruvy2017,Ert and Haruvy 2017,HL,27,1,3,0.10851729849120603,13
ErtHaruvy2017,Ert and Haruvy 2017,HL,28,1,4,0.4642702161381021,13
ErtHaruvy2017,Ert and Haruvy 2017,HL,29,0,7,1.334069060855545,13
ErtHaruvy2017,Ert and Haruvy 2017,HL,30,1,6,1.098713769065216,13
ErtHaruvy2017,Ert and Haruvy 2017,HL,31,1,8,1.85969567457214,13
ErtHaruvy2017,Ert and Haruvy 2017,HL,32,1,8,1.7526562724169343,13
ErtHaruvy2017,Ert and Haruvy 2017,HL,33,1,6,1.1276676995446904,13
ErtHaruvy2017,Ert and Haruvy 2017,HL,34,1,6,1.1139286946970968,13
ErtHaruvy2017,Ert and Haruvy 2017,HL,35,1,7,1.3016673886915668,13
ErtHaruvy2017,Ert and Haruvy 2017,HL,36,1,3,0.300896241737064,13
ErtHaruvy2017,Ert and Haruvy 2017,HL,37,1,7,1.4510007272940129,13
ErtHaruvy2017,Ert and Haruvy 2017,HL,38,1,4,0.39777169066481294,13
ErtHaruvy2017,Ert and Haruvy 2017,HL,39,1,7,1.3114683582587168,13
ErtHaruvy2017,Ert and Haruvy 2017,HL,40,1,3,0.08633372967364267,13
ErtHaruvy2017,Ert and Haruvy 2017,HL,41,1,6,0.8516873264219612,13
ErtHaruvy2017,Ert and Haruvy 2017,HL,42,0,9,2.616858048522845,13
ErtHaruvy2017,Ert and Haruvy 2017,HL,43,0,1,-0.37,13
ErtHaruvy2017,Ert and Haruvy 2017,HL,44,1,4,0.5637478648708202,13
ErtHaruvy2017,Ert and Haruvy 2017,HL,45,0,8,1.6953738750657066,13
ErtHaruvy2017,Ert and Haruvy 2017,HL,46,1,10,2.71,13
ErtHaruvy2017,Ert and Haruvy 2017,HL,47,1,7,1.1728172661969438,13
ErtHaruvy2017,Ert and Haruvy 2017,HL,48,0,6,0.8935693031875416,13
ErtHaruvy2017,Ert and Haruvy 2017,HL,49,1,5,0.6671968824695795,13
ErtHaruvy2017,Ert and Haruvy 2017,HL,50,1,4,0.4890417144959792,13
ErtHaruvy2017,Ert and Haruvy 2017,HL,51,1,6,0.8804313097847626,13
ErtHaruvy2017,Ert and Haruvy 2017,HL,52,1,1,-0.37,13
ErtHaruvy2017,Ert and Haruvy 2017,HL,53,0,1,-0.37,13
ErtHaruvy2017,Ert and Haruvy 2017,HL,54,1,9,2.6846889686398208,13
ErtHaruvy2017,Ert and Haruvy 2017,HL,55,1,4,0.43176518549676984,13
ErtHaruvy2017,Ert and Haruvy 2017,HL,56,1,5,0.8029723455524072,13
ErtHaruvy2017,Ert and Haruvy 2017,HL,57,1,2,-0.25282536147162316,13
ErtHaruvy2017,Ert and Haruvy 2017,HL,58,1,7,1.1645712130144237,13
ErtHaruvy2017,Ert and Haruvy 2017,HL,59,1,7,1.1877839156799017,13
ErtHaruvy2017,Ert and Haruvy 2017,HL,60,1,7,1.4345761375268922,13
ErtHaruvy2017,Ert and Haruvy 2017,HL,1,0,10,2.71,14
ErtHaruvy2017,Ert and Haruvy 2017,HL,2,0,1,-0.37,14
ErtHaruvy2017,Ert and Haruvy 2017,HL,3,0,8,1.8874089681589976,14
ErtHaruvy2017,Ert and Haruvy 2017,HL,4,0,2,-0.23471331072971224,14
ErtHaruvy2017,Ert and Haruvy 2017,HL,5,1,7,1.452062243479304,14
ErtHaruvy2017,Ert and Haruvy 2017,HL,6,1,4,0.5595586068276316,14
ErtHaruvy2017,Ert and Haruvy 2017,HL,7,1,8,1.4963550673797728,14
ErtHaruvy2017,Ert and Haruvy 2017,HL,8,1,8,1.7694978628214448,14
ErtHaruvy2017,Ert and Haruvy 2017,HL,9,1,3,0.12742878718068823,14
ErtHaruvy2017,Ert and Haruvy 2017,HL,10,1,7,1.1677821130771189,14
ErtHaruvy2017,Ert and Haruvy 2017,HL,11,1,1,-0.37,14
ErtHaruvy2017,Ert and Haruvy 2017,HL,12,1,9,2.5175938565377147,14
ErtHaruvy2017,Ert and Haruvy 2017,HL,13,1,5,0.5987070170650258,14
ErtHaruvy2017,Ert and Haruvy 2017,HL,14,1,2,-0.08228276183828709,14
ErtHaruvy2017,Ert and Haruvy 2017,HL,15,0,10,2.71,14
ErtHaruvy2017,Ert and Haruvy 2017,HL,16,0,1,-0.37,14
ErtHaruvy2017,Ert and Haruvy 2017,HL,17,1,10,2.71,14
ErtHaruvy2017,Ert and Haruvy 2017,HL,18,1,10,2.71,14
ErtHaruvy2017,Ert and Haruvy 2017,HL,19,1,4,0.3825481436238624,14
ErtHaruvy2017,Ert and Haruvy 2017,HL,20,1,8,1.8831600935943424,14
ErtHaruvy2017,Ert and Haruvy 2017,HL,21,1,8,1.924441879801452,14
ErtHaruvy2017,Ert and Haruvy 2017,HL,22,1,7,1.1888435133639723,14
ErtHaruvy2017,Ert and Haruvy 2017,HL,23,1,9,2.3848564453143624,14
ErtHaruvy2017,Ert and Haruvy 2017,HL,24,1,9,2.0668462497368454,14
ErtHaruvy2017,Ert and Haruvy 2017,HL,25,1,3,0.18502385556465017,14
ErtHaruvy2017,Ert and Haruvy 2017,HL,26,1,7,1.240032610343769,14
ErtHaruvy2017,Ert and Haruvy 2017,HL,27,1,8,1.8158159447368234,14
ErtHaruvy2017,Ert and Haruvy 2017,HL,28,1,6,0.9680795973399654,14
ErtHaruvy2017,Ert and Haruvy 2017,HL,29,0,9,2.6963802192360165,14
ErtHaruvy2017,Ert and Haruvy 2017,HL,30,1,1,-0.37,14
ErtHaruvy2017,Ert and Haruvy 2017,HL,31,1,7,1.1731141730817034,14
ErtHaruvy2017,Ert and Haruvy 2017,HL,32,1,7,1.4263935793330893,14
ErtHaruvy2017,Ert and Haruvy 2017,HL,33,1,10,2.71,14
ErtHaruvy2017,Ert and Haruvy 2017,HL,34,1,7,1.2641911368025467,14
ErtHaruvy2017,Ert and Haruvy 2017,HL,35,1,6,0.956522340630181,14
ErtHaruvy2017,Ert and Haruvy 2017,HL,36,1,6,0.8816955493763089,14
ErtHaruvy2017,Ert and Haruvy 2017,HL,37,1,3,0.19691394110443072,14
ErtHaruvy2017,Ert and Haruvy 2017,HL,38,1,8,1.5332819524453953,14
ErtHaruvy2017,Ert and Haruvy 2017,HL,39,1,3,0.20494823641842233,14
ErtHaruvy2017,Ert and Haruvy 2017,HL,40,1,10,2.71,14
ErtHaruvy2017,Ert and Haruvy 2017,HL,41,1,10,2.71,14
ErtHaruvy2017,Ert and Haruvy 2017,HL,42,0,1,-0.37,14
ErtHaruvy2017,Ert and Haruvy 2017,HL,43,0,5,0.7966977901151404,14
ErtHaruvy2017,Ert and Haruvy 2017,HL,44,1,4,0.4368891986412927,14
ErtHaruvy2017,Ert and Haruvy 2017,HL,45,0,5,0.7640288859279826,14
ErtHaruvy2017,Ert and Haruvy 2017,HL,46,1,5,0.6722013986995443,14
ErtHaruvy2017,Ert and Haruvy 2017,HL,47,1,3,0.1440603627753444,14
ErtHaruvy2017,Ert and Haruvy 2017,HL,48,0,7,1.2776505936775355,14
ErtHaruvy2017,Ert and Haruvy 2017,HL,49,1,4,0.36278948954306545,14
ErtHaruvy2017,Ert and Haruvy 2017,HL,50,1,7,1.4509411684190854,14
ErtHaruvy2017,Ert and Haruvy 2017,HL,51,1,8,1.6830137101141736,14
ErtHaruvy2017,Ert and Haruvy 2017,HL,52,1,9,2.1015415437705816,14
ErtHaruvy2017,Ert and Haruvy 2017,HL,53,0,10,2.71,14
ErtHaruvy2017,Ert and Haruvy 2017,HL,54,1,9,2.087996789822355,14
ErtHaruvy2017,Ert and Haruvy 2017,HL,55,1,4,0.38600035187788306,14
ErtHaruvy2017,Ert and Haruvy 2017,HL,56,1,4,0.40373685784172264,14
ErtHaruvy2017,Ert and Haruvy 2017,HL,57,1,8,1.6080892891669645,14
ErtHaruvy2017,Ert and Haruvy 2017,HL,58,1,1,-0.37,14
ErtHaruvy2017,Ert and Haruvy 2017,HL,59,1,3,0.07042025558883325,14
ErtHaruvy2017,Ert and Haruvy 2017,HL,60,1,2,-0.3504511502385139,14
ErtHaruvy2017,Ert and Haruvy 2017,HL,1,0,3,0.2942553215520457,15
ErtHaruvy2017,Ert and Haruvy 2017,HL,2,0,3,0.1981832266855054,15
ErtHaruvy2017,Ert and Haruvy 2017,HL,3,0,2,0.004869190156459813,15
ErtHaruvy2017,Ert and Haruvy 2017,HL,4,0,3,0.28094302514335145,15
ErtHaruvy2017,Ert and Haruvy 2017,HL,5,1,10,2.71,15
ErtHaruvy2017,Ert and Haruvy 2017,HL,6,1,8,1.712159767881967,15
ErtHaruvy2017,Ert and Haruvy 2017,HL,7,1,5,0.679281012462452,15
ErtHaruvy2017,Ert and Haruvy 2017,HL,8,1,7,1.196694955425337,15
ErtHaruvy2017,Ert and Haruvy 2017,HL,9,1,4,0.3905738278757781,15
ErtHaruvy2017,Ert and Haruvy 2017,HL,10,1,3,0.06964768599253149,15
ErtHaruvy2017,Ert and Haruvy 2017,HL,11,1,6,0.9082856485620141,15
ErtHaruvy2017,Ert and Haruvy 2017,HL,12,1,4,0.4704479292477481,15
ErtHaruvy2017,Ert and Haruvy 2017,HL,13,1,3,0.13755481913220138,15
ErtHaruvy2017,Ert and Haruvy 2017,HL,14,1,4,0.33385949734598397,15
ErtHaruvy2017,Ert and Haruvy 2017,HL,15,0,6,0.8704664698801935,15
ErtHaruvy2017,Ert and Haruvy 2017,HL,16,0,6,1.023970679147169,15
ErtHaruvy2017,Ert and Haruvy 2017,HL,17,1,10,2.71,15
ErtHaruvy2017,Ert and Haruvy 2017,HL,18,1,3,0.05042312239762396,15
ErtHaruvy2017,Ert and Haruvy 2017,HL,19,1,4,0.5454030977725051,15
ErtHaruvy2017,Ert and Haruvy 2017,HL,20,1,3,0.31284566699527205,15
ErtHaruvy2017,Ert and Haruvy 2017,HL,21,1,5,0.8379518451401964,15
ErtHaruvy2017,Ert and Haruvy 2017,HL,22,1,6,1.0639977999730035,15
ErtHaruvy2017,Ert and Haruvy 2017,HL,23,1,7,1.3225092882942409,15
ErtHaruvy2017,Ert and Haruvy 2017,HL,24,1,3,0.04785391748184338,15
ErtHaruvy2017,Ert and Haruvy 2017,HL,25,1,3,0.168022559969686,15
ErtHaruvy2017,Ert and Haruvy 2017,HL,26,1,4,0.43123127915663645,15
ErtHaruvy2017,Ert and Haruvy 2017,HL,27,1,4,0.5671648404654115,15
ErtHaruvy2017,Ert and Haruvy 2017,HL,28,1,10,2.71,15
ErtHaruvy2017,Ert and Haruvy 2017,HL,29,0,5,0.7970325554069131,15
ErtHaruvy2017,Ert and Haruvy 2017,HL,30,1,3,0.16126945241354407,15
ErtHaruvy2017,Ert and Haruvy 2017,HL,31,1,6,0.9877246650867164,15
ErtHaruvy2017,Ert and Haruvy 2017,HL,32,1,3,0.20455899201100694,15
ErtHaruvy2017,Ert and Haruvy 2017,HL,33,1,10,2.71,15
ErtHaruvy2017,Ert and Haruvy 2017,HL,34,1,8,1.6497105855913832,15
ErtHaruvy2017,Ert and Haruvy 2017,HL,35,1,1,-0.37,15
ErtHaruvy2017,Ert and Haruvy 2017,HL,36,1,4,0.43732496278593314,15
ErtHaruvy2017,Ert and Haruvy 2017,HL,37,1,4,0.4991508571966551,15
ErtHaruvy2017,Ert and Haruvy 2017,HL,38,1,1,-0.37,15
ErtHaruvy2017,Ert and Haruvy 2017,HL,39,1,5,0.7298484641360119,15
ErtHaruvy2017,Ert and Haruvy 2017,HL,40,1,8,1.6301627486338839,15
ErtHaruvy2017,Ert and Haruvy 2017,HL,41,1,7,1.2824206036748365,15
ErtHaruvy2017,Ert and Haruvy 2017,HL,42,0,10,2.71,15
ErtHaruvy2017,Ert and Haruvy 2017,HL,43,0,10,2.71,15
ErtHaruvy2017,Ert and Haruvy 2017,HL,44,1,1,-0.37,15
ErtHaruvy2017,Ert and Haruvy 2017,HL,45,0,1,-0.37,15
ErtHaruvy2017,Ert and Haruvy 2017,HL,46,1,6,1.063116271025501,15
ErtHaruvy2017,Ert and Haruvy 2017,HL,47,1,8,1.868909393288195,15
ErtHaruvy2017,Ert and Haruvy 2017,HL,48,0,9,2.6294698699750008,15
ErtHaruvy2017,Ert and Haruvy 2017,HL,49,1,7,1.1820911974739283,15
ErtHaruvy2017,Ert and Haruvy 2017,HL,50,1,5,0.7967466251458972,15
ErtHaruvy2017,Ert and Haruvy 2017,HL,51,1,3,0.10561316951876507,15
ErtHaruvy2017,Ert and Haruvy 2017,HL,52,1,4,0.4331329930922948,15
ErtHaruvy2017,Ert and Haruvy 2017,HL,53,0,6,0.9360508260317146,15
ErtHaruvy2017,Ert and Haruvy 2017,HL,54,1,7,1.1835332236578686,15
ErtHaruvy2017,Ert and Haruvy 2017,HL,55,1,1,-0.37,15
ErtHaruvy2017,Ert and Haruvy 2017,HL,56,1,5,0.6036378078116104,15
ErtHaruvy2017,Ert and Haruvy 2017,HL,57,1,4,0.47784873149124907,15
ErtHaruvy2017,Ert and Haruvy 2017,HL,58,1,10,2.71,15
ErtHaruvy2017,Ert and Haruvy 2017,HL,59,1,6,0.8819339262321592,15
ErtHaruvy2017,Ert and Haruvy 2017,HL,60,1,10,2.71,15
ErtHaruvy2017,Ert and Haruvy 2017,HL,1,0,3,0.2842631181585603,16
ErtHaruvy2017,Ert and Haruvy 2017,HL,2,0,2,-0.060051003545522674,16
ErtHaruvy2017,Ert and Haruvy 2017,HL,3,0,1,-0.37,16
ErtHaruvy2017,Ert and Haruvy 2017,HL,4,0,1,-0.37,16
ErtHaruvy2017,Ert and Haruvy 2017,HL,5,1,10,2.71,16
ErtHaruvy2017,Ert and Haruvy 2017,HL,6,1,10,2.71,16
ErtHaruvy2017,Ert and Haruvy 2017,HL,7,1,4,0.5440564941707998,16
ErtHaruvy2017,Ert and Haruvy 2017,HL,8,1,2,-0.3394578290916979,16
ErtHaruvy2017,Ert and Haruvy 2017,HL,9,1,5,0.838979177493602,16
ErtHaruvy2017,Ert and Haruvy 2017,HL,10,1,9,2.6503741989750416,16
ErtHaruvy2017,Ert and Haruvy 2017,HL,11,1,3,0.2042652735882439,16
ErtHaruvy2017,Ert and Haruvy 2017,HL,12,1,5,0.7223706498648971,16
ErtHaruvy2017,Ert and Haruvy 2017,HL,13,1,10,2.71,16
ErtHaruvy2017,Ert and Haruvy 2017,HL,14,1,7,1.2408905761223286,16
ErtHaruvy2017,Ert and Haruvy 2017,HL,15,0,9,2.4383824335224924,16
ErtHaruvy2017,Ert and Haruvy 2017,HL,16,0,7,1.2565640729386358,16
ErtHaruvy2017,Ert and Haruvy 2017,HL,17,1,7,1.2065844654664397,16
ErtHaruvy2017,Ert and Haruvy 2017,HL,18,1,5,0.7512318468512967,16
ErtHaruvy2017,Ert and Haruvy 2017,HL,19,1,8,1.8747801227122545,16
ErtHaruvy2017,Ert and Haruvy 2017,HL,20,1,7,1.4255002741049974,16
ErtHaruvy2017,Ert and Haruvy 2017,HL,21,1,9,2.428859494123608,16
ErtHaruvy2017,Ert and Haruvy 2017,HL,22,1,1,-0.37,16
ErtHaruvy2017,Ert and Haruvy 2017,HL,23,1,8,1.8454691146500408,16
ErtHaruvy2017,Ert and Haruvy 2017,HL,24,1,1,-0.37,16
ErtHaruvy2017,Ert and Haruvy 2017,HL,25,1,4,0.48089995356276627,16
ErtHaruvy2017,Ert and Haruvy 2017,HL,26,1,6,0.9590350781101733,16
ErtHaruvy2017,Ert and Haruvy 2017,HL,27,1,3,0.10647990077268334,16
ErtHaruvy2017,Ert and Haruvy 2017,HL,28,1,7,1.3450413292879237,16
ErtHaruvy2017,Ert and Haruvy 2017,HL,29,0,9,2.2529455694928764,16
ErtHaruvy2017,Ert and Haruvy 2017,HL,30,1,1,-0.37,16
ErtHaruvy2017,Ert and Haruvy 2017,HL,31,1,2,-0.19089018365368246,16
ErtHaruvy2017,Ert and Haruvy 2017,HL,32,1,4,0.3477984475903213,16
ErtHaruvy2017,Ert and Haruvy 2017,HL,33,1,9,2.18703718142584,16
ErtHaruvy2017,Ert and Haruvy 2017,HL,34,1,10,2.71,16
ErtHaruvy2017,Ert and Haruvy 2017,HL,35,1,1,-0.37,16
ErtHaruvy2017,Ert and Haruvy 2017,HL,36,1,4,0.4343542384798639,16
ErtHaruvy2017,Ert and Haruvy 2017,HL,37,1,7,1.41217468412593,16
ErtHaruvy2017,Ert and Haruvy 2017,HL,38,1,6,1.119435369898565,16
ErtHaruvy2017,Ert and Haruvy 2017,HL,39,1,3,0.08285667720017956,16
ErtHaruvy2017,Ert and Haruvy 2017,HL,40,1,2,-0.18275865966454147,16
ErtHaruvy2017,Ert and Haruvy 2017,HL,41,1,8,1.7335705665452406,16
ErtHaruvy2017,Ert and Haruvy 2017,HL,42,0,3,0.2961645579431206,16
ErtHaruvy2017,Ert and Haruvy 2017,HL,43,0,4,0.4939229163317941,16
ErtHaruvy2017,Ert and Haruvy 2017,HL,44,1,1,-0.37,16
ErtHaruvy2017,Ert and Haruvy 2017,HL,45,0,10,2.71,16
ErtHaruvy2017,Ert and Haruvy 2017,HL,46,1,6,1.0508402615785597,16
ErtHaruvy2017,Ert and Haruvy 2017,HL,47,1,9,2.144560575131327,16
ErtHaruvy2017,Ert and Haruvy 2017,HL,48,0,8,1.650534254903905,16
ErtHaruvy2017,Ert and Haruvy 2017,HL,49,1,3,0.15209349281387405,16
ErtHaruvy2017,Ert and Haruvy 2017,HL,50,1,10,2.71,16
ErtHaruvy2017,Ert and Haruvy 2017,HL,51,1,10,2.71,16
ErtHaruvy2017,Ert and Haruvy 2017,HL,52,1,7,1.4512258308567105,16
ErtHaruvy2017,Ert and Haruvy 2017,HL,53,0,3,0.29053874305449434,16
ErtHaruvy2017,Ert and Haruvy 2017,HL,54,1,3,0.04977452715858817,16
ErtHaruvy2017,Ert and Haruvy 2017,HL,55,1,9,2.548258539950475,16
ErtHaruvy2017,Ert and Haruvy 2017,HL,56,1,7,1.296330305119045,16
ErtHaruvy2017,Ert and Haruvy 2017,HL,57,1,7,1.1779505537217483,16
ErtHaruvy2017,Ert and Haruvy 2017,HL,58,1,5,0.6265722809173166,16
ErtHaruvy2017,Ert and Haruvy 2017,HL,59,1,4,0.3858281143917702,16
ErtHaruvy2017,Ert and Haruvy 2017,HL,60,1,3,0.26413996060844513,16
ErtHaruvy2017,Ert and Haruvy 2017,HL,1,0,8,1.6809100694349035,17
ErtHaruvy2017,Ert and Haruvy 2017,HL,2,0,8,1.8423910564230754,17
ErtHaruvy2017,Ert and Haruvy 2017,HL,3,0,7,1.2873965363390742,17
ErtHaruvy2017,Ert and Haruvy 2017,HL,4,0,4,0.5814630172867328,17
ErtHaruvy2017,Ert and Haruvy 2017,HL,5,1,7,1.2000596911041066,17
ErtHaruvy2017,Ert and Haruvy 2017,HL,6,1,3,0.2191269352543168,17
ErtHaruvy2017,Ert and Haruvy 2017,HL,7,1,10,2.71,17
ErtHaruvy2017,Ert and Haruvy 2017,HL,8,1,2,-0.26153372328728436,17
ErtHaruvy2017,Ert and Haruvy 2017,HL,9,1,5,0.7231948714563623,17
ErtHaruvy2017,Ert and Haruvy 2017,HL,10,1,3,0.26108804873889313,17
ErtHaruvy2017,Ert and Haruvy 2017,HL,11,1,9,2.5785070266760886,17
ErtHaruvy2017,Ert and Haruvy 2017,HL,12,1,8,1.6911061682039872,17
ErtHaruvy2017,Ert and Haruvy 2017,HL,13,1,1,-0.37,17
ErtHaruvy2017,Ert and Haruvy 2017,HL,14,1,9,2.141371290385723,17
ErtHaruvy2017,Ert and Haruvy 2017,HL,15,0,1,-0.37,17
ErtHaruvy2017,Ert and Haruvy 2017,HL,16,0,7,1.2958579295873642,17
ErtHaruvy2017,Ert and Haruvy 2017,HL,17,1,5,0.7130626483634114,17
ErtHaruvy2017,Ert and Haruvy 2017,HL,18,1,7,1.333470979440026,17
ErtHaruvy2017,Ert and Haruvy 2017,HL,19,1,2,-0.1317995347827673,17
ErtHaruvy2017,Ert and Haruvy 2017,HL,20,1,10,2.71,17
ErtHaruvy2017,Ert and Haruvy 2017,HL,21,1,10,2.71,17
ErtHaruvy2017,Ert and Haruvy 2017,HL,22,1,6,0.9199079074896872,17
ErtHaruvy2017,Ert and Haruvy 2017,HL,23,1,9,2.2304026363417506,17
ErtHaruvy2017,Ert and Haruvy 2017,HL,24,1,1,-0.37,17
ErtHaruvy2017,Ert and Haruvy 2017,HL,25,1,4,0.3686901729996316,17
ErtHaruvy2017,Ert and Haruvy 2017,HL,26,1,8,1.775970321809873,17
ErtHaruvy2017,Ert and Haruvy 2017,HL,27,1,1,-0.37,17
ErtHaruvy2017,Ert and Haruvy 2017,HL,28,1,10,2.71,17
ErtHaruvy2017,Ert and Haruvy 2017,HL,29,0,3,0.22063593915896493,17
ErtHaruvy2017,Ert and Haruvy 2017,HL,30,1,10,2.71,17
ErtHaruvy2017,Ert and Haruvy 2017,HL,31,1,4,0.5715935829142108,17
ErtHaruvy2017,Ert and Haruvy 2017,HL,32,1,2,-0.2508954253792763,17
ErtHaruvy2017,Ert and Haruvy 2017,HL,33,1,5,0.6941214150888845,17
ErtHaruvy2017,Ert and Haruvy 2017,HL,34,1,5,0.8355904647242278,17
ErtHaruvy2017,Ert and Haruvy 2017,HL,35,1,8,1.7419598427787424,17
ErtHaruvy2017,Ert and Haruvy 2017,HL,36,1,9,2.045752104735002,17
ErtHaruvy2017,Ert and Haruvy 2017,HL,37,1,8,1.7068853784305975,17
ErtHaruvy2017,Ert and Haruvy 2017,HL,38,1,5,0.7667890289891511,17
ErtHaruvy2017,Ert and Haruvy 2017,HL,39,1,2,-0.34981487233191727,17
ErtHaruvy2017,Ert and Haruvy 2017,HL,40,1,9,2.076715935273096,17
ErtHaruvy2017,Ert and Haruvy 2017,HL,41,1,1,-0.37,17
ErtHaruvy2017,Ert and Haruvy 2017,HL,42,0,5,0.7662217491026968,17
ErtHaruvy2017,Ert and Haruvy 2017,HL,43,0,3,0.044478618849534544,17
ErtHaruvy2017,Ert and Haruvy 2017,HL,44,1,1,-0.37,17
ErtHaruvy2017,Ert and Haruvy 2017,HL,45,0,2,-0.13761442460119722,17
ErtHaruvy2017,Ert and Haruvy 2017,HL,46,1,2,-0.2532980839535594,17
ErtHaruvy2017,Ert and Haruvy 2017,HL,47,1,3,0.15802614772925155,17
ErtHaruvy2017,Ert and Haruvy 2017,HL,48,0,3,0.07333054611226544,17
ErtHaruvy2017,Ert and Haruvy 2017,HL,49,1,9,2.059707071762532,17
ErtHaruvy2017,Ert and Haruvy 2017,HL,50,1,8,1.829410368381068,17
ErtHaruvy2017,Ert and Haruvy 2017,HL,51,1,3,0.24054162509972232,17
ErtHaruvy2017,Ert and Haruvy 2017,HL,52,1,3,0.17804768479196356,17
ErtHaruvy2017,Ert and Haruvy 2017,HL,53,0,1,-0.37,17
ErtHaruvy2017,Ert and Haruvy 2017,HL,54,1,3,0.24179555865935984,17
ErtHaruvy2017,Ert and Haruvy 2017,HL,55,1,3,0.08990033374866471,17
ErtHaruvy2017,Ert and Haruvy 2017,HL,56,1,3,0.2645058956579306,17
ErtHaruvy2017,Ert and Haruvy 2017,HL,57,1,4,0.5521587034803814,17
ErtHaruvy2017,Ert and Haruvy 2017,HL,58,1,9,2.39968003295362,17
ErtHaruvy2017,Ert and Haruvy 2017,HL,59,1,10,2.71,17
ErtHaruvy2017,Ert and Haruvy 2017,HL,60,1,6,1.0584084215108305,17
ErtHaruvy2017,Ert and Haruvy 2017,HL,1,0,9,2.6059746400173753,18
ErtHaruvy2017,Ert and Haruvy 2017,HL,2,0,6,0.9595071705756708,18
ErtHaruvy2017,Ert and Haruvy 2017,HL,3,0,9,2.5762146310415117,18
ErtHaruvy2017,Ert and Haruvy 2017,HL,4,0,10,2.71,18
ErtHaruvy2017,Ert and Haruvy 2017,HL,5,1,6,1.146352545195259,18
ErtHaruvy2017,Ert and Haruvy 2017,HL,6,1,7,1.4369071744568647,18
ErtHaruvy2017,Ert and Haruvy 2017,HL,7,1,6,1.0713796088937668,18
ErtHaruvy2017,Ert and Haruvy 2017,HL,8,1,1,-0.37,18
ErtHaruvy2017,Ert and Haruvy 2017,HL,9,1,9,2.479693028498441,18
ErtHaruvy2017,Ert and Haruvy 2017,HL,10,1,3,0.04173277578316629,18
ErtHaruvy2017,Ert and Haruvy 2017,HL,11,1,3,0.31467045129975313,18
ErtHaruvy2017,Ert and Haruvy 2017,HL,12,1,9,2.4250892142392693,18
ErtHaruvy2017,Ert and Haruvy 2017,HL,13,1,2,-0.14121084062382577,18
ErtHaruvy2017,Ert and Haruvy 2017,HL,14,1,6,0.9677707694703712,18
ErtHaruvy2017,Ert and Haruvy 2017,HL,15,0,4,0.5405073546129279,18
ErtHaruvy2017,Ert and Haruvy 2017,HL,16,0,4,0.4382266627834178,18
ErtHaruvy2017,Ert and Haruvy 2017,HL,17,1,4,0.5001191763509996,18
ErtHaruvy2017,Ert and Haruvy 2017,HL,18,1,9,2.49867660947144,18
ErtHaruvy2017,Ert and Haruvy 2017,HL,19,1,5,0.6338437950890511,18
ErtHaruvy2017,Ert and Haruvy 2017,HL,20,1,1,-0.37,18
ErtHaruvy2017,Ert and Haruvy 2017,HL,21,1,4,0.450616348774638,18
ErtHaruvy2017,Ert and Haruvy 2017,HL,22,1,9,2.3782702813483776,18
ErtHaruvy2017,Ert and Haruvy 2017,HL,23,1,7,1.2639833802590146,18
ErtHaruvy2017,Ert and Haruvy 2017,HL,24,1,3,0.22725487190997232,18
ErtHaruvy2017,Ert and Haruvy 2017,HL,25,1,5,0.8138836506241932,18
ErtHaruvy2017,Ert and Haruvy 2017,HL,26,1,4,0.5603122791252099,18
ErtHaruvy2017,Ert and Haruvy 2017,HL,27,1,2,-0.07699624856933951,18
ErtHaruvy2017,Ert and Haruvy 2017,HL,28,1,3,0.19188770858338106,18
ErtHaruvy2017,Ert and Haruvy 2017,HL,29,0,1,-0.37,18
ErtHaruvy2017,Ert and Haruvy 2017,HL,30,1,6,1.1021097868215293,18
ErtHaruvy2017,Ert and Haruvy 2017,HL,31,1,4,0.49539282864658163,18
ErtHaruvy2017,Ert and Haruvy 2017,HL,32,1,10,2.71,18
ErtHaruvy2017,Ert and Haruvy 2017,HL,33,1,5,0.7939584076218307,18
ErtHaruvy2017,Ert and Haruvy 2017,HL,34,1,10,2.71,18
ErtHaruvy2017,Ert and Haruvy 2017,HL,35,1,1,-0.37,18
ErtHaruvy2017,Ert and Haruvy 2017,HL,36,1,10,2.71,18
ErtHaruvy2017,Ert and Haruvy 2017,HL,37,1,1,-0.37,18
ErtHaruvy2017,Ert and Haruvy 2017,HL,38,1,7,1.4116189139941708,18
ErtHaruvy2017,Ert and Haruvy 2017,HL,39,1,6,0.9930072508752346,18
ErtHaruvy2017,Ert and Haruvy 2017,HL,40,1,3,0.3052716072113254,18
ErtHaruvy2017,Ert and Haruvy 2017,HL,41,1,9,2.1953017529658974,18
ErtHaruvy2017,Ert and Haruvy 2017,HL,42,0,8,1.6728599738655612,18
ErtHaruvy2017,Ert and Haruvy 2017,HL,43,0,1,-0.37,18
ErtHaruvy2017,Ert and Haruvy 2017,HL,44,1,4,0.46945247032912446,18
ErtHaruvy2017,Ert and Haruvy 2017,HL,45,0,5,0.8193887070473284,18
ErtHaruvy2017,Ert and Haruvy 2017,HL,46,1,9,2.4514471145533023,18
ErtHaruvy2017,Ert and Haruvy 2017,HL,47,1,8,1.8517464724974706,18
ErtHaruvy2017,Ert and Haruvy 2017,HL,48,0,5,0.8452030000975355,18
ErtHaruvy2017,Ert and Haruvy 2017,HL,49,1,1,-0.37,18
ErtHaruvy2017,Ert and Haruvy 2017,HL,50,1,2,-0.35486973540857436,18
ErtHaruvy2017,Ert and Haruvy 2017,HL,51,1,1,-0.37,18
ErtHaruvy2017,Ert and Haruvy 2017,HL,52,1,5,0.8412578100850805,18
ErtHaruvy2017,Ert and Haruvy 2017,HL,53,0,1,-0.37,18
ErtHaruvy2017,Ert and Haruvy 2017,HL,54,1,2,-0.1786387453600764,18
ErtHaruvy2017,Ert and Haruvy 2017,HL,55,1,9,2.7011295302584766,18
ErtHaruvy2017,Ert and Haruvy 2017,HL,56,1,3,0.2602136005903595,18
ErtHaruvy2017,Ert and Haruvy 2017,HL,57,1,6,1.061653748084791,18
ErtHaruvy2017,Ert and Haruvy 2017,HL,58,1,8,1.9130182594899088,18
ErtHaruvy2017,Ert and Haruvy 2017,HL,59,1,7,1.2550370862428097,18
ErtHaruvy2017,Ert and Haruvy 2017,HL,60,1,6,1.0252508462406693,18
ErtHaruvy2017,Ert and Haruvy 2017,HL,1,0,9,2.077692496702075,19
ErtHaruvy2017,Ert and Haruvy 2017,HL,2,0,2,-0.040353260263800594,19
ErtHaruvy2017,Ert and Haruvy 2017,HL,3,0,1,-0.37,19
ErtHaruvy2017,Ert and Haruvy 2017,HL,4,0,6,0.8734987668925897,19
ErtHaruvy2017,Ert and Haruvy 2017,HL,5,1,7,1.3358818248333408,19
ErtHaruvy2017,Ert and Haruvy 2017,HL,6,1,8,1.6262199097406118,19
ErtHaruvy2017,Ert and Haruvy 2017,HL,7,1,3,0.27236164069734514,19
ErtHaruvy2017,Ert and Haruvy 2017,HL,8,1,8,1.8648682098230347,19
ErtHaruvy2017,Ert and Haruvy 2017,HL,9,1,5,0.6325734127638861,19
ErtHaruvy2017,Ert and Haruvy 2017,HL,10,1,3,0.16136591950431467,19
ErtHaruvy2017,Ert and Haruvy 2017,HL,11,1,3,0.27901471808552747,19
ErtHaruvy2017,Ert and Haruvy 2017,HL,12,1,6,1.0672248539282008,19
ErtHaruvy2017,Ert and Haruvy 2017,HL,13,1,9,2.502840247824788,19
ErtHaruvy2017,Ert and Haruvy 2017,HL,14,1,6,0.8957556148525327,19
ErtHaruvy2017,Ert and Haruvy 2017,HL,15,0,8,1.6184570701327174,19
ErtHaruvy2017,Ert and Haruvy 2017,HL,16,0,8,1.9467753954743965,19
ErtHaruvy2017,Ert and Haruvy 2017,HL,17,1,7,1.2628482989128678,19
ErtHaruvy2017,Ert and Haruvy 2017,HL,18,1,9,2.2224901456665247,19
ErtHaruvy2017,Ert and Haruvy 2017,HL,19,1,3,0.05633764950791374,19
ErtHaruvy2017,Ert and Haruvy 2017,HL,20,1,7,1.2508384013175964,19
ErtHaruvy2017,Ert and Haruvy 2017,HL,21,1,7,1.193532626889646,19
ErtHaruvy2017,Ert and Haruvy 2017,HL,22,1,10,2.71,19
ErtHaruvy2017,Ert and Haruvy 2017,HL,23,1,10,2.71,19
ErtHaruvy2017,Ert and Haruvy 2017,HL,24,1,9,2.4873182842321695,19
ErtHaruvy2017,Ert and Haruvy 2017,HL,25,1,8,1.9140950253000484,19
ErtHaruvy2017,Ert and Haruvy 2017,HL,26,1,2,-0.17846970761194825,19
ErtHaruvy2017,Ert and Haruvy 2017,HL,27,1,8,1.7680549742793663,19
ErtHaruvy2017,Ert and Haruvy 2017,HL,28,1,1,-0.37,19
ErtHaruvy2017,Ert and Haruvy 2017,HL,29,0,7,1.280645536049269,19
ErtHaruvy2017,Ert and Haruvy 2017,HL,30,1,1,-0.37,19
ErtHaruvy2017,Ert and Haruvy 2017,HL,31,1,7,1.1865912541234864,19
ErtHaruvy2017,Ert and Haruvy 2017,HL,32,1,3,0.08567930488381535,19
ErtHaruvy2017,Ert and Haruvy 2017,HL,33,1,6,0.9286767728859558,19
ErtHaruvy2017,Ert and Haruvy 2017,HL,34,1,1,-0.37,19
ErtHaruvy2017,Ert and Haruvy 2017,HL,35,1,1,-0.37,19
ErtHaruvy2017,Ert and Haruvy 2017,HL,36,1,9,2.617543184449896,19
ErtHaruvy2017,Ert and Haruvy 2017,HL,37,1,7,1.4157358249323442,19
ErtHaruvy2017,Ert and Haruvy 2017,HL,38,1,6,1.0924121011514216,19
ErtHaruvy2017,Ert and Haruvy 2017,HL,39,1,8,1.9209653606498613,19
ErtHaruvy2017,Ert and Haruvy 2017,HL,40,1,9,2.357215677881613,19
ErtHaruvy2017,Ert and Haruvy 2017,HL,41,1,3,0.03894923965446651,19
ErtHaruvy2017,Ert and Haruvy 2017,HL,42,0,7,1.4651494407420977,19
ErtHaruvy2017,Ert and Haruvy 2017,HL,43,0,4,0.5661052591074258,19
ErtHaruvy2017,Ert and Haruvy 2017,HL,44,1,10,2.71,19
ErtHaruvy2017,Ert and Haruvy 2017,HL,45,0,2,-0.1533940677344799,19
ErtHaruvy2017,Ert and Haruvy 2017,HL,46,1,7,1.3536570753203705,19
ErtHaruvy2017,Ert and Haruvy 2017,HL,47,1,10,2.71,19
ErtHaruvy2017,Ert and Haruvy 2017,HL,48,0,6,1.1324191235704346,19
ErtHaruvy2017,Ert and Haruvy 2017,HL,49,1,6,1.0428422247758133,19
ErtHaruvy2017,Ert and Haruvy 2017,HL,50,1,3,0.15425699881976473,19
ErtHaruvy2017,Ert and Haruvy 2017,HL,51,1,4,0.42729433448286724,19
ErtHaruvy2017,Ert and Haruvy 2017,HL,52,1,10,2.71,19
ErtHaruvy2017,Ert and Haruvy 2017,HL,53,0,1,-0.37,19
ErtHaruvy2017,Ert and Haruvy 2017,HL,54,1,8,1.8637129332497715,19
ErtHaruvy2017,Ert and Haruvy 2017,HL,55,1,9,2.6925391391944142,19
ErtHaruvy2017,Ert and Haruvy 2017,HL,56,1,2,-0.22344695206731557,19
ErtHaruvy2017,Ert and Haruvy 2017,HL,57,1,7,1.2427858824376017,19
ErtHaruvy2017,Ert and Haruvy 2017,HL,58,1,3,0.0714680450456217,19
ErtHaruvy2017,Ert and Haruvy 2017,HL,59,1,2,-0.1329113039933145,19
ErtHaruvy2017,Ert and Haruvy 2017,HL,60,1,7,1.1987957454519345,19
ErtHaruvy2017,Ert and Haruvy 2017,HL,1,0,6,0.9972506817663088,20
ErtHaruvy2017,Ert and Haruvy 2017,HL,2,0,10,2.71,20
ErtHaruvy2017,Ert and Haruvy 2017,HL,3,0,7,1.4452344060875475,20
ErtHaruvy2017,Ert and Haruvy 2017,HL,4,0,3,0.141177428541705,20
ErtHaruvy2017,Ert and Haruvy 2017,HL,5,1,10,2.71,20
ErtHaruvy2017,Ert and Haruvy 2017,HL,6,1,7,1.4621748629026114,20
ErtHaruvy2017,Ert and Haruvy 2017,HL,7,1,10,2.71,20
ErtHaruvy2017,Ert and Haruvy 2017,HL,8,1,9,1.9616165297292172,20
ErtHaruvy2017,Ert and Haruvy 2017,HL,9,1,5,0.804291095752269,20
ErtHaruvy2017,Ert and Haruvy 2017,HL,10,1,7,1.1743467282224445,20
ErtHaruvy2017,Ert and Haruvy 2017,HL,11,1,3,0.2969732523616404,20
ErtHaruvy2017,Ert and Haruvy 2017,HL,12,1,7,1.1769851498957722,20
ErtHaruvy2017,Ert and Haruvy 2017,HL,13,1,9,2.540183167913929,20
ErtHaruvy2017,Ert and Haruvy 2017,HL,14,1,5,0.616022946727462,20
ErtHaruvy2017,Ert and Haruvy 2017,HL,15,0,7,1.4794286782946438,20
ErtHaruvy2017,Ert and Haruvy 2017,HL,16,0,4,0.43117301466176283,20
ErtHaruvy2017,Ert and Haruvy 2017,HL,17,1,5,0.819416174152866,20
ErtHaruvy2017,Ert and Haruvy 2017,HL,18,1,3,0.06836727567017079,20
ErtHaruvy2017,Ert and Haruvy 2017,HL,19,1,1,-0.37,20
ErtHaruvy2017,Ert and Haruvy 2017,HL,20,1,1,-0.37,20
ErtHaruvy2017,Ert and Haruvy 2017,HL,21,1,2,-0.061858862992376085,20
ErtHaruvy2017,Ert and Haruvy 2017,HL,22,1,9,2.268040388599038,20
ErtHaruvy2017,Ert and Haruvy 2017,HL,23,1,4,0.4942400721879676,20
ErtHaruvy2017,Ert and Haruvy 2017,HL,24,1,1,-0.37,20
ErtHaruvy2017,Ert and Haruvy 2017,HL,25,1,7,1.373659212384373,20
ErtHaruvy2017,Ert and Haruvy 2017,HL,26,1,8,1.72127074141521,20
ErtHaruvy2017,Ert and Haruvy 2017,HL,27,1,6,0.8540413024835288,20
ErtHaruvy2017,Ert and Haruvy 2017,HL,28,1,7,1.3811600769450887,20
ErtHaruvy2017,Ert and Haruvy 2017,HL,29,0,7,1.4184840408433228,20
ErtHaruvy2017,Ert and Haruvy 2017,HL,30,1,9,2.044626524131745,20
ErtHaruvy2017,Ert and Haruvy 2017,HL,31,1,2,-0.24942770309746265,20
ErtHaruvy2017,Ert and Haruvy 2017,HL,32,1,7,1.189390105563216,20
ErtHaruvy2017,Ert and Haruvy 2017,HL,33,1,4,0.4444014088250696,20
ErtHaruvy2017,Ert and Haruvy 2017,HL,34,1,8,1.5348186370404437,20
ErtHaruvy2017,Ert and Haruvy 2017,HL,35,1,4,0.47636357056675477,20
ErtHaruvy2017,Ert and Haruvy 2017,HL,36,1,9,2.397157037584111,20
ErtHaruvy2017,Ert and Haruvy 2017,HL,37,1,2,-0.04239708723500368,20
ErtHaruvy2017,Ert and Haruvy 2017,HL,38,1,10,2.71,20
ErtHaruvy2017,Ert and Haruvy 2017,HL,39,1,8,1.721938454224728,20
ErtHaruvy2017,Ert and Haruvy 2017,HL,40,1,9,2.10597058923915,20
ErtHaruvy2017,Ert and Haruvy 2017,HL,41,1,1,-0.37,20
ErtHaruvy2017,Ert and Haruvy 2017,HL,42,0,8,1.567160221543163,20
ErtHaruvy2017,Ert and Haruvy 2017,HL,43,0,1,-0.37,20
ErtHaruvy2017,Ert and Haruvy 2017,HL,44,1,6,0.9657917793607339,20
ErtHaruvy2017,Ert and Haruvy 2017,HL,45,0,4,0.36423425181070346,20
ErtHaruvy2017,Ert and Haruvy 2017,HL,46,1,6,0.8599015138577669,20
ErtHaruvy2017,Ert and Haruvy 2017,HL,47,1,7,1.2427790808817372,20
ErtHaruvy2017,Ert and Haruvy 2017,HL,48,0,8,1.8915130839589982,20
ErtHaruvy2017,Ert and Haruvy 2017,HL,49,1,9,2.176317806588486,20
ErtHaruvy2017,Ert and Haruvy 2017,HL,50,1,6,1.022432762524113,20
ErtHaruvy2017,Ert and Haruvy 2017,HL,51,1,10,2.71,20
ErtHaruvy2017,Ert and Haruvy 2017,HL,52,1,4,0.449138193319086,20
ErtHaruvy2017,Ert and Haruvy 2017,HL,53,0,2,0.024232306443154827,20
ErtHaruvy2017,Ert and Haruvy 2017,HL,54,1,5,0.8358392073167488,20
ErtHaruvy2017,Ert and Haruvy 2017,HL,55,1,8,1.7500510644819587,20
ErtHaruvy2017,Ert and Haruvy 2017,HL,56,1,9,2.4348286036401987,20
ErtHaruvy2017,Ert and Haruvy 2017,HL,57,1,8,1.8135360385337844,20
ErtHaruvy2017,Ert and Haruvy 2017,HL,58,1,2,-0.1042790636233985,20
ErtHaruvy2017,Ert and Haruvy 2017,HL,59,1,9,2.3133614976610986,20
ErtHaruvy2017,Ert and Haruvy 2017,HL,60,1,5,0.6969433611351996,20
ErtHaruvy2017,Ert and Haruvy 2017,HL,1,0,2,0.02316242560744286,21
ErtHaruvy2017,Ert and Haruvy 2017,HL,2,0,8,1.6973087524017318,21
ErtHaruvy2017,Ert and Haruvy 2017,HL,3,0,6,0.8875902609433979,21
ErtHaruvy2017,Ert and Haruvy 2017,HL,4,0,4,0.4962547044409439,21
ErtHaruvy2017,Ert and Haruvy 2017,HL,5,1,10,2.71,21
ErtHaruvy2017,Ert and Haruvy 2017,HL,6,1,10,2.71,21
ErtHaruvy2017,Ert and Haruvy 2017,HL,7,1,6,0.8838865633588284,21
ErtHaruvy2017,Ert and Haruvy 2017,HL,8,1,5,0.6019581354549154,21
ErtHaruvy2017,Ert and Haruvy 2017,HL,9,1,4,0.39335019439226016,21
ErtHaruvy2017,Ert and Haruvy 2017,HL,10,1,6,0.9038444257108494,21
ErtHaruvy2017,Ert and Haruvy 2017,HL,11,1,7,1.489235750650987,21
ErtHaruvy2017,Ert and Haruvy 2017,HL,12,1,3,0.13718200383940712,21
ErtHaruvy2017,Ert and Haruvy 2017,HL,13,1,6,1.1069332263432443,21
ErtHaruvy2017,Ert and Haruvy 2017,HL,14,1,5,0.6720667595649138,21
ErtHaruvy2017,Ert and Haruvy 2017,HL,15,0,9,2.650046844575554,21
ErtHaruvy2017,Ert and Haruvy 2017,HL,16,0,3,0.03964264607522637,21
ErtHaruvy2017,Ert and Haruvy 2017,HL,17,1,6,0.9785515024326741,21
ErtHaruvy2017,Ert and Haruvy 2017,HL,18,1,6,1.114782034815289,21
ErtHaruvy2017,Ert and Haruvy 2017,HL,19,1,10,2.71,21
ErtHaruvy2017,Ert and Haruvy 2017,HL,20,1,9,2.2697579947765916,21
ErtHaruvy2017,Ert and Haruvy 2017,HL,21,1,8,1.8243279239861294,21
ErtHaruvy2017,Ert and Haruvy 2017,HL,22,1,8,1.6426908002980054,21
ErtHaruvy2017,Ert and Haruvy 2017,HL,23,1,8,1.7460957915708422,21
ErtHaruvy2017,Ert and Haruvy 2017,HL,24,1,5,0.7922161141969264,21
ErtHaruvy2017,Ert and Haruvy 2017,HL,25,1,6,0.8866662424523383,21
ErtHaruvy2017,Ert and Haruvy 2017,HL,26,1,8,1.546804352607578,21
ErtHaruvy2017,Ert and Haruvy 2017,HL,27,1,5,0.7487992476252838,21
ErtHaruvy2017,Ert and Haruvy 2017,HL,28,1,4,0.44080273976316675,21
ErtHaruvy2017,Ert and Haruvy 2017,HL,29,0,5,0.6007547941710799,21
ErtHaruvy2017,Ert and Haruvy 2017,HL,30,1,8,1.8368457920616492,21
ErtHaruvy2017,Ert and Haruvy 2017,HL,31,1,3,0.13853783019818366,21
ErtHaruvy2017,Ert and Haruvy 2017,HL,32,1,3,0.2634018432744779,21
ErtHaruvy2017,Ert and Haruvy 2017,HL,33,1,5,0.7593975058337673,21
ErtHaruvy2017,Ert and Haruvy 2017,HL,34,1,6,1.0878555500879883,21
ErtHaruvy2017,Ert and Haruvy 2017,HL,35,1,5,0.8366762274224311,21
ErtHaruvy2017,Ert and Haruvy 2017,HL,36,1,2,-0.3673833098076284,21
ErtHaruvy2017,Ert and Haruvy 2017,HL,37,1,3,0.2608270488446579,21
ErtHaruvy2017,Ert and Haruvy 2017,HL,38,1,7,1.227669712640345,21
ErtHaruvy2017,Ert and Haruvy 2017,HL,39,1,1,-0.37,21
ErtHaruvy2017,Ert and Haruvy 2017,HL,40,1,9,2.566584675749764,21
ErtHaruvy2017,Ert and Haruvy 2017,HL,41,1,3,0.19271508062956857,21
ErtHaruvy2017,Ert and Haruvy 2017,HL,42,0,1,-0.37,21
ErtHaruvy2017,Ert and Haruvy 2017,HL,43,0,8,1.9403053558152168,21
ErtHaruvy2017,Ert and Haruvy 2017,HL,44,1,3,0.07297634558519349,21
ErtHaruvy2017,Ert and Haruvy 2017,HL,45,0,4,0.34895847907988353,21
ErtHaruvy2017,Ert and Haruvy 2017,HL,46,1,10,2.71,21
ErtHaruvy2017,Ert and Haruvy 2017,HL,47,1,8,1.5395704311318696,21
ErtHaruvy2017,Ert and Haruvy 2017,HL,48,0,5,0.7591050935024395,21
ErtHaruvy2017,Ert and Haruvy 2017,HL,49,1,6,0.8614378874422982,21
ErtHaruvy2017,Ert and Haruvy 2017,HL,50,1,10,2.71,21
ErtHaruvy2017,Ert and Haruvy 2017,HL,51,1,4,0.362985808509402,21
ErtHaruvy2017,Ert and Haruvy 2017,HL,52,1,10,2.71,21
ErtHaruvy2017,Ert and Haruvy 2017,HL,53,0,4,0.4196550696296617,21
ErtHaruvy2017,Ert and Haruvy 2017,HL,54,1,7,1.4021506620943547,21
ErtHaruvy2017,Ert and Haruvy 2017,HL,55,1,4,0.32168716709595174,21
ErtHaruvy2017,Ert and Haruvy 2017,HL,56,1,2,-0.20890136685222385,21
ErtHaruvy2017,Ert and Haruvy 2017,HL,57,1,2,-0.044592001736164066,21
ErtHaruvy2017,Ert and Haruvy 2017,HL,58,1,7,1.4801011390564964,21
ErtHaruvy2017,Ert and Haruvy 2017,HL,59,1,9,2.0784029952343555,21
ErtHaruvy2017,Ert and Haruvy 2017,HL,60,1,4,0.5375543998368084,21
ErtHaruvy2017,Ert and Haruvy 2017,HL,1,0,2,-0.3440981561131775,22
ErtHaruvy2017,Ert and Haruvy 2017,HL,2,0,3,0.03551061844918877,22
ErtHaruvy2017,Ert and Haruvy 2017,HL,3,0,8,1.5030612837616355,22
ErtHaruvy2017,Ert and Haruvy 2017,HL,4,0,6,1.0700779728824272,22
ErtHaruvy2017,Ert and Haruvy 2017,HL,5,1,8,1.5008780977129936,22
ErtHaruvy2017,Ert and Haruvy 2017,HL,6,1,5,0.7427877393085509,22
ErtHaruvy2017,Ert and Haruvy 2017,HL,7,1,5,0.7002980152796954,22
ErtHaruvy2017,Ert and Haruvy 2017,HL,8,1,2,-0.359681804459542,22
ErtHaruvy2017,Ert and Haruvy 2017,HL,9,1,3,0.0855086349719204,22
ErtHaruvy2017,Ert and Haruvy 2017,HL,10,1,7,1.4363158400543035,22
ErtHaruvy2017,Ert and Haruvy 2017,HL,11,1,5,0.8285889383032918,22
ErtHaruvy2017,Ert and Haruvy 2017,HL,12,1,9,2.3642585950624198,22
ErtHaruvy2017,Ert and Haruvy 2017,HL,13,1,9,2.6846398354601115,22
ErtHaruvy2017,Ert and Haruvy 2017,HL,14,1,4,0.41389607269084083,22
ErtHaruvy2017,Ert and Haruvy 2017,HL,15,0,9,2.1117995257303117,22
ErtHaruvy2017,Ert and Haruvy 2017,HL,16,0,2,-0.3558824755065143,22
ErtHaruvy2017,Ert and Haruvy 2017,HL,17,1,3,0.2581486230203882,22
ErtHaruvy2017,Ert and Haruvy 2017,HL,18,1,9,2.4133052004687485,22
ErtHaruvy2017,Ert and Haruvy 2017,HL,19,1,9,2.6617610045243056,22
ErtHaruvy2017,Ert and Haruvy 2017,HL,20,1,3,0.15500956636620686,22
ErtHaruvy2017,Ert and Haruvy 2017,HL,21,1,10,2.71,22
ErtHaruvy2017,Ert and Haruvy 2017,HL,22,1,7,1.2926159919193014,22
ErtHaruvy2017,Ert and Haruvy 2017,HL,23,1,5,0.6379703080002218,22
ErtHaruvy2017,Ert and Haruvy 2017,HL,24,1,2,-0.013829836137592755,22
ErtHaruvy2017,Ert and Haruvy 2017,HL,25,1,1,-0.37,22
ErtHaruvy2017,Ert and Haruvy 2017,HL,26,1,9,2.4096237464156003,22
ErtHaruvy2017,Ert and Haruvy 2017,HL,27,1,6,0.9593204928096384,22
ErtHaruvy2017,Ert and Haruvy 2017,HL,28,1,1,-0.37,22
ErtHaruvy2017,Ert and Haruvy 2017,HL,29,0,9,2.2187440944835544,22
ErtHaruvy2017,Ert and Haruvy 2017,HL,30,1,8,1.5741964839585125,22
ErtHaruvy2017,Ert and Haruvy 2017,HL,31,1,6,0.9235470342449843,22
ErtHaruvy2017,Ert and Haruvy 2017,HL,32,1,10,2.71,22
ErtHaruvy2017,Ert and Haruvy 2017,HL,33,1,3,0.2371889613592066,22
ErtHaruvy2017,Ert and Haruvy 2017,HL,34,1,7,1.2144643810624256,22
ErtHaruvy2017,Ert and Haruvy 2017,HL,35,1,9,2.609106646515429,22
ErtHaruvy2017,Ert and Haruvy 2017,HL,36,1,4,0.46326257770648227,22
ErtHaruvy2017,Ert and Haruvy 2017,HL,37,1,9,2.0534997173305602,22
ErtHaruvy2017,Ert and Haruvy 2017,HL,38,1,8,1.6500661030737682,22
ErtHaruvy2017,Ert and Haruvy 2017,HL,39,1,8,1.55855916258879,22
ErtHaruvy2017,Ert and Haruvy 2017,HL,40,1,9,2.6597171580325814,22
ErtHaruvy2017,Ert and Haruvy 2017,HL,41,1,9,2.1279455335251987,22
ErtHaruvy2017,Ert and Haruvy 2017,HL,42,0,1,-0.37,22
ErtHaruvy2017,Ert and Haruvy 2017,HL,43,0,5,0.8101734204357489,22
ErtHaruvy2017,Ert and Haruvy 2017,HL,44,1,3,0.29031833583954725,22
ErtHaruvy2017,Ert and Haruvy 2017,HL,45,0,5,0.6798875418119132,22
ErtHaruvy2017,Ert and Haruvy 2017,HL,46,1,3,0.23770388745702806,22
ErtHaruvy2017,Ert and Haruvy 2017,HL,47,1,9,2.634614516543224,22
ErtHaruvy2017,Ert and Haruvy 2017,HL,48,0,5,0.6452646272210404,22
ErtHaruvy2017,Ert and Haruvy 2017,HL,49,1,4,0.4164330284157768,22
ErtHaruvy2017,Ert and Haruvy 2017,HL,50,1,1,-0.37,22
ErtHaruvy2017,Ert and Haruvy 2017,HL,51,1,10,2.71,22
ErtHaruvy2017,Ert and Haruvy 2017,HL,52,1,1,-0.37,22
ErtHaruvy2017,Ert and Haruvy 2017,HL,53,0,3,0.16498684642836453,22
ErtHaruvy2017,Ert and Haruvy 2017,HL,54,1,3,0.25180987041676417,22
ErtHaruvy2017,Ert and Haruvy 2017,HL,55,1,8,1.5581887731235473,22
ErtHaruvy2017,Ert and Haruvy 2017,HL,56,1,8,1.5975974364206196,22
ErtHaruvy2017,Ert and Haruvy 2017,HL,57,1,8,1.7587282753828912,22
ErtHaruvy2017,Ert and Haruvy 2017,HL,58,1,10,2.71,22
ErtHaruvy2017,Ert and Haruvy 2017,HL,59,1,10,2.71,22
ErtHaruvy2017,Ert and Haruvy 2017,HL,60,1,1,-0.37,22
ErtHaruvy2017,Ert and Haruvy 2017,HL,1,0,9,2.553214779049158,23
ErtHaruvy2017,Ert and Haruvy 2017,HL,2,0,10,2.71,23
ErtHaruvy2017,Ert and Haruvy 2017,HL,3,0,10,2.71,23
ErtHaruvy2017,Ert and Haruvy 2017,HL,4,0,4,0.40037042908370496,23
ErtHaruvy2017,Ert and Haruvy 2017,HL,5,1,1,-0.37,23
ErtHaruvy2017,Ert and Haruvy 2017,HL,6,1,5,0.7579686582041905,23
ErtHaruvy2017,Ert and Haruvy 2017,HL,7,1,7,1.2283095225458964,23
ErtHaruvy2017,Ert and Haruvy 2017,HL,8,1,10,2.71,23
ErtHaruvy2017,Ert and Haruvy 2017,HL,9,1,2,-0.020657706242054652,23
ErtHaruvy2017,Ert and Haruvy 2017,HL,10,1,9,2.533209794005379,23
ErtHaruvy2017,Ert and Haruvy 2017,HL,11,1,8,1.644771086294204,23
ErtHaruvy2017,Ert and Haruvy 2017,HL,12,1,9,2.5058060798980293,23
ErtHaruvy2017,Ert and Haruvy 2017,HL,13,1,5,0.745007214397192,23
ErtHaruvy2017,Ert and Haruvy 2017,HL,14,1,4,0.445146780021023,23
ErtHaruvy2017,Ert and Haruvy 2017,HL,15,0,1,-0.37,23
ErtHaruvy2017,Ert and Haruvy 2017,HL,16,0,9,2.5245059647783634,23
ErtHaruvy2017,Ert and Haruvy 2017,HL,17,1,3,0.29529933490324767,23
ErtHaruvy2017,Ert and Haruvy 2017,HL,18,1,1,-0.37,23
ErtHaruvy2017,Ert and Haruvy 2017,HL,19,1,5,0.8138980856072158,23
ErtHaruvy2017,Ert and Haruvy 2017,HL,20,1,10,2.71,23
ErtHaruvy2017,Ert and Haruvy 2017,HL,21,1,2,-0.3686299439333379,23
ErtHaruvy2017,Ert and Haruvy 2017,HL,22,1,10,2.71,23
ErtHaruvy2017,Ert and Haruvy 2017,HL,23,1,1,-0.37,23
ErtHaruvy2017,Ert and Haruvy 2017,HL,24,1,2,-0.0663578825816512,23
ErtHaruvy2017,Ert and Haruvy 2017,HL,25,1,2,-0.24936845291405915,23
ErtHaruvy2017,Ert and Haruvy 2017,HL,26,1,8,1.6931277897767723,23
ErtHaruvy2017,Ert and Haruvy 2017,HL,27,1,8,1.5437177048996091,23
ErtHaruvy2017,Ert and Haruvy 2017,HL,28,1,4,0.4142961025820114,23
ErtHaruvy2017,Ert and Haruvy 2017,HL,29,0,7,1.3113809254253284,23
ErtHaruvy2017,Ert and Haruvy 2017,HL,30,1,10,2.71,23
ErtHaruvy2017,Ert and Haruvy 2017,HL,31,1,8,1.7075151423970236,23
ErtHaruvy2017,Ert and Haruvy 2017,HL,32,1,6,0.8662818095413968,23
ErtHaruvy2017,Ert and Haruvy 2017,HL,33,1,3,0.17331529621500524,23
ErtHaruvy2017,Ert and Haruvy 2017,HL,34,1,9,2.1155803489033134,23
ErtHaruvy2017,Ert and Haruvy 2017,HL,35,1,8,1.6980670485226437,23
ErtHaruvy2017,Ert and Haruvy 2017,HL,36,1,2,-0.12054060788825152,23
ErtHaruvy2017,Ert and Haruvy 2017,HL,37,1,9,2.1099263760074973,23
ErtHaruvy2017,Ert and Haruvy 2017,HL,38,1,9,2.201426690388471,23
ErtHaruvy2017,Ert and Haruvy 2017,HL,39,1,4,0.43139531360939143,23
ErtHaruvy2017,Ert and Haruvy 2017,HL,40,1,8,1.8470641790982336,23
ErtHaruvy2017,Ert and Haruvy 2017,HL,41,1,7,1.2208867341373115,23
ErtHaruvy2017,Ert and Haruvy 2017,HL,42,0,3,0.04311202824348584,23
ErtHaruvy2017,Ert and Haruvy 2017,HL,43,0,9,1.9896742251887918,23
ErtHaruvy2017,Ert and Haruvy 2017,HL,44,1,2,0.006248040236532693,23
ErtHaruvy2017,Ert and Haruvy 2017,HL,45,0,4,0.5467955144052393,23
ErtHaruvy2017,Ert and Haruvy 2017,HL,46,1,2,-0.264145630300045,23
ErtHaruvy2017,Ert and Haruvy 2017,HL,47,1,3,0.12151406439486892,23
ErtHaruvy2017,Ert and Haruvy 2017,HL,48,0,1,-0.37,23
ErtHaruvy2017,Ert and Haruvy 2017,HL,49,1,5,0.7841505072452127,23
ErtHaruvy2017,Ert and Haruvy 2017,HL,50,1,4,0.5016468207002618,23
ErtHaruvy2017,Ert and Haruvy 2017,HL,51,1,7,1.206201652237214,23
ErtHaruvy2017,Ert and Haruvy 2017,HL,52,1,10,2.71,23
ErtHaruvy2017,Ert and Haruvy 2017,HL,53,0,3,0.19598264874191956,23
ErtHaruvy2017,Ert and Haruvy 2017,HL,54,1,7,1.1615589347854256,23
ErtHaruvy2017,Ert and Haruvy 2017,HL,55,1,5,0.8323898609355092,23
ErtHaruvy2017,Ert and Haruvy 2017,HL,56,1,2,-0.34082954170182345,23
ErtHaruvy2017,Ert and Haruvy 2017,HL,57,1,6,1.1028443769551812,23
ErtHaruvy2017,Ert and Haruvy 2017,HL,58,1,9,2.1683177402429283,23
ErtHaruvy2017,Ert and Haruvy 2017,HL,59,1,9,2.3728949041012672,23
ErtHaruvy2017,Ert and Haruvy 2017,HL,60,1,7,1.2345592823904008,23
ErtHaruvy2017,Ert and Haruvy 2017,HL,1,0,2,0.014514400456100751,24
ErtHaruvy2017,Ert and Haruvy 2017,HL,2,0,4,0.55066416132031,24
ErtHaruvy2017,Ert and Haruvy 2017,HL,3,0,4,0.45017928641987964,24
ErtHaruvy2017,Ert and Haruvy 2017,HL,4,0,4,0.4652724829432554,24
ErtHaruvy2017,Ert and Haruvy 2017,HL,5,1,3,0.20035685940645637,24
ErtHaruvy2017,Ert and Haruvy 2017,HL,6,1,2,-0.05217412503436203,24
ErtHaruvy2017,Ert and Haruvy 2017,HL,7,1,9,2.435332382898778,24
ErtHaruvy2017,Ert and Haruvy 2017,HL,8,1,10,2.71,24
ErtHaruvy2017,Ert and Haruvy 2017,HL,9,1,7,1.2620799821987747,24
ErtHaruvy2017,Ert and Haruvy 2017,HL,10,1,3,0.1403197766863741,24
ErtHaruvy2017,Ert and Haruvy 2017,HL,11,1,2,-0.3399240164831281,24
ErtHaruvy2017,Ert and Haruvy 2017,HL,12,1,2,-0.08070545697584747,24
ErtHaruvy2017,Ert and Haruvy 2017,HL,13,1,5,0.6509878391074017,24
ErtHaruvy2017,Ert and Haruvy 2017,HL,14,1,3,0.14131816482404247,24
ErtHaruvy2017,Ert and Haruvy 2017,HL,15,0,3,0.27187964629149064,24
ErtHaruvy2017,Ert and Haruvy 2017,HL,16,0,8,1.6999150243960321,24
ErtHaruvy2017,Ert and Haruvy 2017,HL,17,1,2,-0.3266082008183002,24
ErtHaruvy2017,Ert and Haruvy 2017,HL,18,1,7,1.3508323708595706,24
ErtHaruvy2017,Ert and Haruvy 2017,HL,19,1,9,2.3860294713359327,24
ErtHaruvy2017,Ert and Haruvy 2017,HL,20,1,2,-0.11767007967457171,24
ErtHaruvy2017,Ert and Haruvy 2017,HL,21,1,4,0.5395241701952181,24
ErtHaruvy2017,Ert and Haruvy 2017,HL,22,1,1,-0.37,24
ErtHaruvy2017,Ert and Haruvy 2017,HL,23,1,8,1.8698349175509066,24
ErtHaruvy2017,Ert and Haruvy 2017,HL,24,1,8,1.9445912853488698,24
ErtHaruvy2017,Ert and Haruvy 2017,HL,25,1,4,0.4683638495742343,24
ErtHaruvy2017,Ert and Haruvy 2017,HL,26,1,10,2.71,24
ErtHaruvy2017,Ert and Haruvy 2017,HL,27,1,4,0.4253146343980916,24
ErtHaruvy2017,Ert and Haruvy 2017,HL,28,1,10,2.71,24
ErtHaruvy2017,Ert and Haruvy 2017,HL,29,0,8,1.6642612809035926,24
ErtHaruvy2017,Ert and Haruvy 2017,HL,30,1,2,-0.2906819183193147,24
ErtHaruvy2017,Ert and Haruvy 2017,HL,31,1,7,1.2098224320309237,24
ErtHaruvy2017,Ert and Haruvy 2017,HL,32,1,5,0.8192723749577999,24
ErtHaruvy2017,Ert and Haruvy 2017,HL,33,1,4,0.4215285999397747,24
ErtHaruvy2017,Ert and Haruvy 2017,HL,34,1,5,0.6080538865923881,24
ErtHaruvy2017,Ert and Haruvy 2017,HL,35,1,8,1.6334962803823874,24
ErtHaruvy2017,Ert and Haruvy 2017,HL,36,1,7,1.4363731917226688,24
ErtHaruvy2017,Ert and Haruvy 2017,HL,37,1,9,2.0151627381611616,24
ErtHaruvy2017,Ert and Haruvy 2017,HL,38,1,1,-0.37,24
ErtHaruvy2017,Ert and Haruvy 2017,HL,39,1,1,-0.37,24
ErtHaruvy2017,Ert and Haruvy 2017,HL,40,1,3,0.23887463400140407,24
ErtHaruvy2017,Ert and Haruvy 2017,HL,41,1,9,2.5276597702596337,24
ErtHaruvy2017,Ert and Haruvy 2017,HL,42,0,2,-0.28338322991505266,24
ErtHaruvy2017,Ert and Haruvy 2017,HL,43,0,10,2.71,24
ErtHaruvy2017,Ert and Haruvy 2017,HL,44,1,9,2.634024951476604,24
ErtHaruvy2017,Ert and Haruvy 2017,HL,45,0,4,0.535744573730044,24
ErtHaruvy2017,Ert and Haruvy 2017,HL,46,1,8,1.9349421028979124,24
ErtHaruvy2017,Ert and Haruvy 2017,HL,47,1,10,2.71,24
ErtHaruvy2017,Ert and Haruvy 2017,HL,48,0,8,1.8000256846798584,24
ErtHaruvy2017,Ert and Haruvy 2017,HL,49,1,6,1.1356147381942718,24
ErtHaruvy2017,Ert and Haruvy 2017,HL,50,1,2,-0.34380585959181187,24
ErtHaruvy2017,Ert and Haruvy 2017,HL,51,1,9,1.9501767656672746,24
ErtHaruvy2017,Ert and Haruvy 2017,HL,52,1,5,0.5994841569289565,24
ErtHaruvy2017,Ert and Haruvy 2017,HL,53,0,6,1.0655266332672908,24
ErtHaruvy2017,Ert and Haruvy 2017,HL,54,1,2,-0.2277813203446567,24
ErtHaruvy2017,Ert and Haruvy 2017,HL,55,1,9,2.4211212647240608,24
ErtHaruvy2017,Ert and Haruvy 2017,HL,56,1,2,-0.09024031765758989,24
ErtHaruvy2017,Ert and Haruvy 2017,HL,57,1,6,0.8857948170509189,24
ErtHaruvy2017,Ert and Haruvy 2017,HL,58,1,2,-0.06820578377693887,24
ErtHaruvy2017,Ert and Haruvy 2017,HL,59,1,1,-0.37,24
ErtHaruvy2017,Ert and Haruvy 2017,HL,60,1,2,-0.1798208519630134,24
ErtHaruvy2017,Ert and Haruvy 2017,HL,1,0,1,-0.37,25
ErtHaruvy2017,Ert and Haruvy 2017,HL,2,0,6,0.8740474689053371,25
ErtHaruvy2017,Ert and Haruvy 2017,HL,3,0,2,-0.2953346988931298,25
ErtHaruvy2017,Ert and Haruvy 2017,HL,4,0,10,2.71,25
ErtHaruvy2017,Ert and Haruvy 2017,HL,5,1,10,2.71,25
ErtHaruvy2017,Ert and Haruvy 2017,HL,6,1,9,2.185851879939437,25
ErtHaruvy2017,Ert and Haruvy 2017,HL,7,1,10,2.71,25
ErtHaruvy2017,Ert and Haruvy 2017,HL,8,1,5,0.8310073624877259,25
ErtHaruvy2017,Ert and Haruvy 2017,HL,9,1,3,0.15473619927885013,25
ErtHaruvy2017,Ert and Haruvy 2017,HL,10,1,6,1.0839124772232025,25
ErtHaruvy2017,Ert and Haruvy 2017,HL,11,1,1,-0.37,25
ErtHaruvy2017,Ert and Haruvy 2017,HL,12,1,5,0.6061972762597725,25
ErtHaruvy2017,Ert and Haruvy 2017,HL,13,1,8,1.7056548265414313,25
ErtHaruvy2017,Ert and Haruvy 2017,HL,14,1,4,0.4116996238194406,25
ErtHaruvy2017,Ert and Haruvy 2017,HL,15,0,10,2.71,25
ErtHaruvy2017,Ert and Haruvy 2017,HL,16,0,9,2.0096173792053014,25
ErtHaruvy2017,Ert and Haruvy 2017,HL,17,1,6,0.980137938261032,25
ErtHaruvy2017,Ert and Haruvy 2017,HL,18,1,8,1.6572241490334272,25
ErtHaruvy2017,Ert and Haruvy 2017,HL,19,1,9,2.0298447139840574,25
ErtHaruvy2017,Ert and Haruvy 2017,HL,20,1,1,-0.37,25
ErtHaruvy2017,Ert and Haruvy 2017,HL,21,1,6,1.027814140357077,25
ErtHaruvy2017,Ert and Haruvy 2017,HL,22,1,2,-0.07693296482786532,25
ErtHaruvy2017,Ert and Haruvy 2017,HL,23,1,4,0.38067566415295007,25
ErtHaruvy2017,Ert and Haruvy 2017,HL,24,1,3,0.1737966258102097,25
ErtHaruvy2017,Ert and Haruvy 2017,HL,25,1,1,-0.37,25
ErtHaruvy2017,Ert and Haruvy 2017,HL,26,1,4,0.36161783231189476,25
ErtHaruvy2017,Ert and Haruvy 2017,HL,27,1,6,1.116364403674379,25
ErtHaruvy2017,Ert and Haruvy 2017,HL,28,1,4,0.4944578311406076,25
ErtHaruvy2017,Ert and Haruvy 2017,HL,29,0,2,-0.15098541004583238,25
ErtHaruvy2017,Ert and Haruvy 2017,HL,30,1,10,2.71,25
ErtHaruvy2017,Ert and Haruvy 2017,HL,31,1,4,0.35484543297905474,25
ErtHaruvy2017,Ert and Haruvy 2017,HL,32,1,6,0.9583452216349542,25
ErtHaruvy2017,Ert and Haruvy 2017,HL,33,1,5,0.7441829676833004,25
ErtHaruvy2017,Ert and Haruvy 2017,HL,34,1,2,-0.3535996667854488,25
ErtHaruvy2017,Ert and Haruvy 2017,HL,35,1,3,0.2720810359786265,25
ErtHaruvy2017,Ert and Haruvy 2017,HL,36,1,7,1.3843316111993045,25
ErtHaruvy2017,Ert and Haruvy 2017,HL,37,1,9,2.2939075828157365,25
ErtHaruvy2017,Ert and Haruvy 2017,HL,38,1,6,0.9354026913875714,25
ErtHaruvy2017,Ert and Haruvy 2017,HL,39,1,7,1.3920656131999567,25
ErtHaruvy2017,Ert and Haruvy 2017,HL,40,1,6,0.9044113707961514,25
ErtHaruvy2017,Ert and Haruvy 2017,HL,41,1,9,2.5357021249551326,25
ErtHaruvy2017,Ert and Haruvy 2017,HL,42,0,3,0.2705819116625935,25
ErtHaruvy2017,Ert and Haruvy 2017,HL,43,0,6,0.8941448465688153,25
ErtHaruvy2017,Ert and Haruvy 2017,HL,44,1,8,1.7825544665427877,25
ErtHaruvy2017,Ert and Haruvy 2017,HL,45,0,10,2.71,25
ErtHaruvy2017,Ert and Haruvy 2017,HL,46,1,1,-0.37,25
ErtHaruvy2017,Ert and Haruvy 2017,HL,47,1,1,-0.37,25
ErtHaruvy2017,Ert and Haruvy 2017,HL,48,0,4,0.456386241663713,25
ErtHaruvy2017,Ert and Haruvy 2017,HL,49,1,9,2.6323877524957062,25
ErtHaruvy2017,Ert and Haruvy 2017,HL,50,1,6,1.1229075614828616,25
ErtHaruvy2017,Ert and Haruvy 2017,HL,51,1,10,2.71,25
ErtHaruvy2017,Ert and Haruvy 2017,HL,52,1,9,2.0962765117548408,25
ErtHaruvy2017,Ert and Haruvy 2017,HL,53,0,8,1.877946332176216,25
ErtHaruvy2017,Ert and Haruvy 2017,HL,54,1,4,0.4413202343787998,25
ErtHaruvy2017,Ert and Haruvy 2017,HL,55,1,1,-0.37,25
ErtHaruvy2017,Ert and Haruvy 2017,HL,56,1,5,0.6062722761463374,25
ErtHaruvy2017,Ert and Haruvy 2017,HL,57,1,5,0.7310320654278621,25
ErtHaruvy2017,Ert and Haruvy 2017,HL,58,1,1,-0.37,25
ErtHaruvy2017,Ert and Haruvy 2017,HL,59,1,9,2.206935311425477,25
ErtHaruvy2017,Ert and Haruvy 2017,HL,60,1,10,2.71,25
ErtHaruvy2017,Ert and Haruvy 2017,HL,1,0,1,-0.37,26
ErtHaruvy2017,Ert and Haruvy 2017,HL,2,0,3,0.24947606444591658,26
ErtHaruvy2017,Ert and Haruvy 2017,HL,3,0,1,-0.37,26
ErtHaruvy2017,Ert and Haruvy 2017,HL,4,0,1,-0.37,26
ErtHaruvy2017,Ert and Haruvy 2017,HL,5,1,6,0.8728955281665548,26
ErtHaruvy2017,Ert and Haruvy 2017,HL,6,1,3,0.30824008183320983,26
ErtHaruvy2017,Ert and Haruvy 2017,HL,7,1,6,1.1302407536888495,26
ErtHaruvy2017,Ert and Haruvy 2017,HL,8,1,10,2.71,26
ErtHaruvy2017,Ert and Haruvy 2017,HL,9,1,2,-0.08680367430672048,26
ErtHaruvy2017,Ert and Haruvy 2017,HL,10,1,1,-0.37,26
ErtHaruvy2017,Ert and Haruvy 2017,HL,11,1,5,0.7948086625849828,26
ErtHaruvy2017,Ert and Haruvy 2017,HL,12,1,3,0.2608137359539978,26
ErtHaruvy2017,Ert and Haruvy 2017,HL,13,1,5,0.7495452309586108,26
ErtHaruvy2017,Ert and Haruvy 2017,HL,14,1,9,2.2333264964539556,26
ErtHaruvy2017,Ert and Haruvy 2017,HL,15,0,8,1.761339275506325,26
ErtHaruvy2017,Ert and Haruvy 2017,HL,16,0,10,2.71,26
ErtHaruvy2017,Ert and Haruvy 2017,HL,17,1,9,2.6714074171707036,26
ErtHaruvy2017,Ert and Haruvy 2017,HL,18,1,3,0.2779845534032211,26
ErtHaruvy2017,Ert and Haruvy 2017,HL,19,1,9,2.476838141167536,26
ErtHaruvy2017,Ert and Haruvy 2017,HL,20,1,10,2.71,26
ErtHaruvy2017,Ert and Haruvy 2017,HL,21,1,8,1.8398184781055897,26
ErtHaruvy2017,Ert and Haruvy 2017,HL,22,1,9,2.634657332384959,26
ErtHaruvy2017,Ert and Haruvy 2017,HL,23,1,4,0.4912482593068853,26
ErtHaruvy2017,Ert and Haruvy 2017,HL,24,1,10,2.71,26
ErtHaruvy2017,Ert and Haruvy 2017,HL,25,1,1,-0.37,26
ErtHaruvy2017,Ert and Haruvy 2017,HL,26,1,4,0.47081143644172696,26
ErtHaruvy2017,Ert and Haruvy 2017,HL,27,1,4,0.4627327263006009,26
ErtHaruvy2017,Ert and Haruvy 2017,HL,28,1,1,-0.37,26
ErtHaruvy2017,Ert and Haruvy 2017,HL,29,0,10,2.71,26
ErtHaruvy2017,Ert and Haruvy 2017,HL,30,1,4,0.44374200854683293,26
ErtHaruvy2017,Ert and Haruvy 2017,HL,31,1,5,0.7325946066807956,26
ErtHaruvy2017,Ert and Haruvy 2017,HL,32,1,9,2.085108968317509,26
ErtHaruvy2017,Ert and Haruvy 2017,HL,33,1,2,-0.16238876318559048,26
ErtHaruvy2017,Ert and Haruvy 2017,HL,34,1,6,1.0075191830750554,26
ErtHaruvy2017,Ert and Haruvy 2017,HL,35,1,7,1.4686614851746709,26
ErtHaruvy2017,Ert and Haruvy 2017,HL,36,1,10,2.71,26
ErtHaruvy2017,Ert and Haruvy 2017,HL,37,1,9,2.422367040198296,26
ErtHaruvy2017,Ert and Haruvy 2017,HL,38,1,3,0.26345129179069776,26
ErtHaruvy2017,Ert and Haruvy 2017,HL,39,1,2,-0.04794750286266203,26
ErtHaruvy2017,Ert and Haruvy 2017,HL,40,1,10,2.71,26
ErtHaruvy2017,Ert and Haruvy 2017,HL,41,1,5,0.7334621363086625,26
ErtHaruvy2017,Ert and Haruvy 2017,HL,42,0,5,0.6706329502258449,26
ErtHaruvy2017,Ert and Haruvy 2017,HL,43,0,5,0.6404577154014259,26
ErtHaruvy2017,Ert and Haruvy 2017,HL,44,1,2,-0.23845502899959684,26
ErtHaruvy2017,Ert and Haruvy 2017,HL,45,0,6,0.8671283671632409,26
ErtHaruvy2017,Ert and Haruvy 2017,HL,46,1,7,1.346230332511477,26
ErtHaruvy2017,Ert and Haruvy 2017,HL,47,1,6,0.8726711340015754,26
ErtHaruvy2017,Ert and Haruvy 2017,HL,48,0,3,0.1977233322709799,26
ErtHaruvy2017,Ert and Haruvy 2017,HL,49,1,10,2.71,26
ErtHaruvy2017,Ert and Haruvy 2017,HL,50,1,4,0.4216290425276384,26
ErtHaruvy2017,Ert and Haruvy 2017,HL,51,1,2,-0.10249656632542609,26
ErtHaruvy2017,Ert and Haruvy 2017,HL,52,1,1,-0.37,26
ErtHaruvy2017,Ert and Haruvy 2017,HL,53,0,4,0.392811267899815,26
ErtHaruvy2017,Ert and Haruvy 2017,HL,54,1,7,1.1694461165415122,26
ErtHaruvy2017,Ert and Haruvy 2017,HL,55,1,10,2.71,26
ErtHaruvy2017,Ert and Haruvy 2017,HL,56,1,9,2.314703848194331,26
ErtHaruvy2017,Ert and Haruvy 2017,HL,57,1,6,0.9751548141241073,26
ErtHaruvy2017,Ert and Haruvy 2017,HL,58,1,5,0.6055238098092377,26
ErtHaruvy2017,Ert and Haruvy 2017,HL,59,1,7,1.4886722840322182,26
ErtHaruvy2017,Ert and Haruvy 2017,HL,60,1,8,1.7911250831186771,26
ErtHaruvy2017,Ert and Haruvy 2017,HL,1,0,3,0.24305146733997393,27
ErtHaruvy2017,Ert and Haruvy 2017,HL,2,0,9,2.2835494804009793,27
ErtHaruvy2017,Ert and Haruvy 2017,HL,3,0,10,2.71,27
ErtHaruvy2017,Ert and Haruvy 2017,HL,4,0,8,1.8168654371052981,27
ErtHaruvy2017,Ert and Haruvy 2017,HL,5,1,1,-0.37,27
ErtHaruvy2017,Ert and Haruvy 2017,HL,6,1,9,2.383366620214656,27
ErtHaruvy2017,Ert and Haruvy 2017,HL,7,1,1,-0.37,27
ErtHaruvy2017,Ert and Haruvy 2017,HL,8,1,3,0.30233364649349825,27
ErtHaruvy2017,Ert and Haruvy 2017,HL,9,1,3,0.2527422655979171,27
ErtHaruvy2017,Ert and Haruvy 2017,HL,10,1,10,2.71,27
ErtHaruvy2017,Ert and Haruvy 2017,HL,11,1,3,0.21753443785710264,27
ErtHaruvy2017,Ert and Haruvy 2017,HL,12,1,7,1.1836664614500476,27
ErtHaruvy2017,Ert and Haruvy 2017,HL,13,1,10,2.71,27
ErtHaruvy2017,Ert and Haruvy 2017,HL,14,1,4,0.5729830418457277,27
ErtHaruvy2017,Ert and Haruvy 2017,HL,15,0,2,-0.24854854837059975,27
ErtHaruvy2017,Ert and Haruvy 2017,HL,16,0,6,1.0957201972138135,27
ErtHaruvy2017,Ert and Haruvy 2017,HL,17,1,2,0.012122299727052477,27
ErtHaruvy2017,Ert and Haruvy 2017,HL,18,1,10,2.71,27
ErtHaruvy2017,Ert and Haruvy 2017,HL,19,1,1,-0.37,27
ErtHaruvy2017,Ert and Haruvy 2017,HL,20,1,5,0.6076335998997092,27
ErtHaruvy2017,Ert and Haruvy 2017,HL,21,1,5,0.7829637473076582,27
ErtHaruvy2017,Ert and Haruvy 2017,HL,22,1,7,1.4073923584353178,27
ErtHaruvy2017,Ert and Haruvy 2017,HL,23,1,6,0.9413477880414575,27
ErtHaruvy2017,Ert and Haruvy 2017,HL,24,1,7,1.1904597271094097,27
ErtHaruvy2017,Ert and Haruvy 2017,HL,25,1,3,0.30517538839485503,27
ErtHaruvy2017,Ert and Haruvy 2017,HL,26,1,2,-0.21232167536392807,27
ErtHaruvy2017,Ert and Haruvy 2017,HL,27,1,7,1.4515754025988281,27
